File: input/common/input/solar/solar_spectrum_02368_2.txt
Solar Doppler Velocity [m/s]:   298.33                # Note: Positive means FOV moving TOWARDS the sun.
Solar Intensity Units are: ph/s/m^2/um
Distance to Sun in AU:    1.00721
S = Solar Rest Frame.  E = earth-centered rest frame.
        Wavenumber_E        Wavenumber_S   Wavelength_S [um]       Transmittance           Intensity
          6288.29          6288.28        1.59026        0.787969        0.165611E+22
          6288.07          6288.06        1.59031        0.96025        0.201808E+22
          6287.85          6287.84        1.59037        0.860187        0.180768E+22
          6287.63          6287.62        1.59043        0.946357        0.198865E+22
          6287.41          6287.4        1.59048        0.976179        0.205119E+22
          6287.19          6287.18        1.59054        0.984828        0.206924E+22
          6286.97          6286.96        1.59059        0.814986        0.171228E+22
          6286.75          6286.74        1.59065        0.98688        0.207331E+22
          6286.53          6286.52        1.5907        0.989897        0.207952E+22
          6286.31          6286.3        1.59076        0.988698        0.207688E+22
          6286.09          6286.08        1.59082        0.970545        0.203863E+22
          6285.87          6285.86        1.59087        0.684416        0.143753E+22
          6285.65          6285.64        1.59093        0.962697        0.202190E+22
          6285.43          6285.42        1.59098        0.966843        0.203049E+22
          6285.21          6285.2        1.59104        0.642969        0.135023E+22
          6284.99          6284.98        1.59109        0.967001        0.203058E+22
          6284.77          6284.76        1.59115        0.987983        0.207452E+22
          6284.55          6284.54        1.59121        0.988722        0.207595E+22
          6284.33          6284.32        1.59126        0.991014        0.208064E+22
          6284.11          6284.1        1.59132        0.966999        0.203010E+22
          6283.89          6283.88        1.59137        0.941185        0.197579E+22
          6283.67          6283.66        1.59143        0.993326        0.208512E+22
          6283.45          6283.44        1.59148        0.977218        0.205118E+22
          6283.23          6283.22        1.59154        0.897881        0.188454E+22
          6283.01          6283        1.5916        0.914014        0.191829E+22
          6282.79          6282.78        1.59165        0.977961        0.205238E+22
          6282.57          6282.56        1.59171        0.873605        0.183326E+22
          6282.35          6282.34        1.59176        0.979283        0.205491E+22
          6282.13          6282.12        1.59182        0.970361        0.203606E+22
          6281.91          6281.9        1.59187        0.984066        0.206470E+22
          6281.69          6281.68        1.59193        0.995689        0.208896E+22
          6281.47          6281.46        1.59199        0.997807        0.209328E+22
          6281.25          6281.24        1.59204        0.998387        0.209437E+22
          6281.03          6281.02        1.5921        0.994038        0.208512E+22
          6280.81          6280.8        1.59215        0.944609        0.198132E+22
          6280.59          6280.58        1.59221        0.991994        0.208059E+22
          6280.37          6280.36        1.59226        0.998129        0.209333E+22
          6280.15          6280.14        1.59232        0.996279        0.208933E+22
          6279.93          6279.92        1.59238        0.994373        0.208521E+22
          6279.71          6279.7        1.59243        0.966841        0.202735E+22
          6279.49          6279.48        1.59249        0.786559        0.164922E+22
          6279.27          6279.26        1.59254        0.899262        0.188542E+22
          6279.05          6279.04        1.5926        0.962167        0.201719E+22
          6278.83          6278.82        1.59265        0.985658        0.206631E+22
          6278.61          6278.6        1.59271        0.954607        0.200110E+22
          6278.39          6278.38        1.59277        0.997979        0.209189E+22
          6278.17          6278.16        1.59282        0.998885        0.209367E+22
          6277.95          6277.94        1.59288        0.99932        0.209445E+22
          6277.73          6277.72        1.59293        0.997136        0.208975E+22
          6277.51          6277.5        1.59299        0.99971        0.209502E+22
          6277.29          6277.28        1.59305        0.999795        0.209508E+22
          6277.07          6277.06        1.5931        0.991245        0.207704E+22
          6276.85          6276.84        1.59316        0.999664        0.209455E+22
          6276.63          6276.62        1.59321        0.992821        0.208009E+22
          6276.41          6276.4        1.59327        0.940568        0.197049E+22
          6276.19          6276.18        1.59332        0.998138        0.209098E+22
          6275.97          6275.96        1.59338        0.900923        0.188721E+22
          6275.75          6275.74        1.59344        0.996795        0.208792E+22
          6275.53          6275.52        1.59349        0.999887        0.209427E+22
          6275.31          6275.3        1.59355        0.997689        0.208954E+22
          6275.09          6275.08        1.5936        0.999964        0.209418E+22
          6274.87          6274.86        1.59366        0.999953        0.209403E+22
          6274.65          6274.64        1.59372        0.999845        0.209368E+22
          6274.43          6274.42        1.59377        0.998551        0.209084E+22
          6274.21          6274.2        1.59383        0.904506        0.189381E+22
          6273.99          6273.98        1.59388        0.993747        0.208054E+22
          6273.77          6273.76        1.59394        0.99959        0.209264E+22
          6273.55          6273.54        1.594        0.999782        0.209292E+22
          6273.33          6273.32        1.59405        0.999683        0.209259E+22
          6273.11          6273.1        1.59411        0.996481        0.208576E+22
          6272.89          6272.88        1.59416        0.997485        0.208774E+22
          6272.67          6272.66        1.59422        0.994156        0.208065E+22
          6272.45          6272.44        1.59427        0.982683        0.205651E+22
          6272.23          6272.22        1.59433        0.849787        0.177828E+22
          6272.01          6272        1.59439        0.992558        0.207693E+22
          6271.79          6271.78        1.59444        0.998375        0.208897E+22
          6271.57          6271.56        1.5945        0.9937        0.207907E+22
          6271.35          6271.34        1.59455        0.98991        0.207101E+22
          6271.13          6271.12        1.59461        0.836901        0.175080E+22
          6270.91          6270.9        1.59467        0.982658        0.205559E+22
          6270.69          6270.68        1.59472        0.999242        0.209016E+22
          6270.47          6270.46        1.59478        0.996704        0.208473E+22
          6270.25          6270.24        1.59483        0.953801        0.199487E+22
          6270.03          6270.02        1.59489        0.998452        0.208813E+22
          6269.81          6269.8        1.59495        0.957053        0.200143E+22
          6269.59          6269.58        1.595        0.992479        0.207539E+22
          6269.37          6269.36        1.59506        0.998681        0.208823E+22
          6269.15          6269.14        1.59511        0.999525        0.208987E+22
          6268.93          6268.92        1.59517        0.997374        0.208525E+22
          6268.71          6268.7        1.59523        0.996225        0.208273E+22
          6268.49          6268.48        1.59528        0.982759        0.205445E+22
          6268.27          6268.26        1.59534        0.998061        0.208631E+22
          6268.05          6268.04        1.59539        0.998782        0.208769E+22
          6267.83          6267.82        1.59545        0.998594        0.208718E+22
          6267.61          6267.6        1.59551        0.998233        0.208630E+22
          6267.39          6267.38        1.59556        0.997516        0.208467E+22
          6267.17          6267.16        1.59562        0.996067        0.208152E+22
          6266.95          6266.94        1.59567        0.97697        0.204149E+22
          6266.73          6266.72        1.59573        0.964372        0.201504E+22
          6266.51          6266.5        1.59579        0.979734        0.204702E+22
          6266.29          6266.28        1.59584        0.838468        0.175176E+22
          6266.07          6266.06        1.5959        0.83186        0.173785E+22
          6265.85          6265.84        1.59595        0.953814        0.199250E+22
          6265.63          6265.62        1.59601        0.976581        0.203994E+22
          6265.41          6265.4        1.59607        0.977552        0.204184E+22
          6265.19          6265.18        1.59612        0.96842        0.202265E+22
          6264.97          6264.96        1.59618        0.954292        0.199302E+22
          6264.75          6264.74        1.59623        0.93576        0.195420E+22
          6264.53          6264.52        1.59629        0.959519        0.200370E+22
          6264.31          6264.3        1.59635        0.902727        0.188499E+22
          6264.09          6264.08        1.5964        0.748051        0.156191E+22
          6263.87          6263.86        1.59646        0.57655        0.120375E+22
          6263.65          6263.64        1.59651        0.868658        0.181352E+22
          6263.43          6263.42        1.59657        0.947551        0.197811E+22
          6263.21          6263.2        1.59663        0.965185        0.201480E+22
          6262.99          6262.98        1.59668        0.828622        0.172962E+22
          6262.77          6262.76        1.59674        0.951905        0.198684E+22
          6262.55          6262.54        1.5968        0.983836        0.205336E+22
          6262.33          6262.32        1.59685        0.988126        0.206219E+22
          6262.11          6262.1        1.59691        0.823479        0.171847E+22
          6261.89          6261.88        1.59696        0.959757        0.200274E+22
          6261.67          6261.66        1.59702        0.993356        0.207273E+22
          6261.45          6261.44        1.59708        0.990836        0.206735E+22
          6261.23          6261.22        1.59713        0.920932        0.192138E+22
          6261.01          6261        1.59719        0.827441        0.172622E+22
          6260.79          6260.78        1.59724        0.918337        0.191573E+22
          6260.57          6260.56        1.5973        0.986798        0.205843E+22
          6260.35          6260.34        1.59736        0.996592        0.207873E+22
          6260.13          6260.12        1.59741        0.99708        0.207962E+22
          6259.91          6259.9        1.59747        0.998154        0.208174E+22
          6259.69          6259.68        1.59752        0.992553        0.206993E+22
          6259.47          6259.46        1.59758        0.953292        0.198793E+22
          6259.25          6259.24        1.59764        0.995829        0.207651E+22
          6259.03          6259.02        1.59769        0.97768        0.203854E+22
          6258.81          6258.8        1.59775        0.89991        0.187627E+22
          6258.59          6258.58        1.59781        0.981152        0.204554E+22
          6258.37          6258.36        1.59786        0.982547        0.204832E+22
          6258.15          6258.14        1.59792        0.992749        0.206946E+22
          6257.93          6257.92        1.59797        0.996909        0.207801E+22
          6257.71          6257.7        1.59803        0.997409        0.207893E+22
          6257.49          6257.48        1.59809        0.997159        0.207828E+22
          6257.27          6257.26        1.59814        0.993573        0.207068E+22
          6257.05          6257.04        1.5982        0.987739        0.205840E+22
          6256.83          6256.82        1.59826        0.9945        0.207236E+22
          6256.61          6256.6        1.59831        0.993129        0.206938E+22
          6256.39          6256.38        1.59837        0.974691        0.203084E+22
          6256.17          6256.16        1.59842        0.967708        0.201616E+22
          6255.95          6255.94        1.59848        0.831631        0.173255E+22
          6255.73          6255.72        1.59854        0.788475        0.164254E+22
          6255.51          6255.5        1.59859        0.953266        0.198572E+22
          6255.29          6255.28        1.59865        0.877009        0.182676E+22
          6255.07          6255.06        1.5987        0.985591        0.205280E+22
          6254.85          6254.84        1.59876        0.993196        0.206852E+22
          6254.63          6254.62        1.59882        0.993205        0.206841E+22
          6254.41          6254.4        1.59887        0.997111        0.207642E+22
          6254.19          6254.18        1.59893        0.99784        0.207781E+22
          6253.97          6253.96        1.59899        0.998129        0.207829E+22
          6253.75          6253.74        1.59904        0.998261        0.207843E+22
          6253.53          6253.52        1.5991        0.998307        0.207840E+22
          6253.31          6253.3        1.59915        0.998255        0.207817E+22
          6253.09          6253.08        1.59921        0.997568        0.207661E+22
          6252.87          6252.86        1.59927        0.99405        0.206916E+22
          6252.65          6252.64        1.59932        0.997108        0.207540E+22
          6252.43          6252.42        1.59938        0.991935        0.206451E+22
          6252.21          6252.2        1.59944        0.995496        0.207180E+22
          6251.99          6251.98        1.59949        0.99768        0.207621E+22
          6251.77          6251.76        1.59955        0.998029        0.207682E+22
          6251.55          6251.54        1.5996        0.989767        0.205950E+22
          6251.33          6251.32        1.59966        0.986358        0.205228E+22
          6251.11          6251.1        1.59972        0.992088        0.206408E+22
          6250.89          6250.88        1.59977        0.998302        0.207688E+22
          6250.67          6250.66        1.59983        0.998349        0.207685E+22
          6250.45          6250.44        1.59989        0.998341        0.207671E+22
          6250.23          6250.22        1.59994        0.99832        0.207654E+22
          6250.01          6250        1.6        0.998271        0.207631E+22
          6249.79          6249.78        1.60006        0.998103        0.207583E+22
          6249.57          6249.56        1.60011        0.997168        0.207376E+22
          6249.35          6249.34        1.60017        0.971593        0.202045E+22
          6249.13          6249.12        1.60022        0.875984        0.182152E+22
          6248.91          6248.9        1.60028        0.994787        0.206843E+22
          6248.69          6248.68        1.60034        0.997732        0.207443E+22
          6248.47          6248.46        1.60039        0.998045        0.207496E+22
          6248.25          6248.24        1.60045        0.993655        0.206570E+22
          6248.03          6248.02        1.60051        0.997892        0.207438E+22
          6247.81          6247.8        1.60056        0.997789        0.207404E+22
          6247.59          6247.58        1.60062        0.997403        0.207312E+22
          6247.37          6247.36        1.60068        0.986632        0.205060E+22
          6247.15          6247.14        1.60073        0.992026        0.206169E+22
          6246.93          6246.92        1.60079        0.991968        0.206144E+22
          6246.71          6246.7        1.60084        0.978548        0.203343E+22
          6246.49          6246.48        1.6009        0.885243        0.183943E+22
          6246.27          6246.26        1.60096        0.835789        0.173656E+22
          6246.05          6246.04        1.60101        0.945225        0.196382E+22
          6245.83          6245.82        1.60107        0.925857        0.192347E+22
          6245.61          6245.6        1.60113        0.675515        0.140330E+22
          6245.39          6245.38        1.60118        0.929743        0.193131E+22
          6245.17          6245.16        1.60124        0.788762        0.163835E+22
          6244.95          6244.94        1.6013        0.971283        0.201735E+22
          6244.73          6244.72        1.60135        0.972698        0.202016E+22
          6244.51          6244.5        1.60141        0.735018        0.152644E+22
          6244.29          6244.28        1.60146        0.974022        0.202267E+22
          6244.07          6244.06        1.60152        0.995993        0.206817E+22
          6243.85          6243.84        1.60158        0.997432        0.207103E+22
          6243.63          6243.62        1.60163        0.997614        0.207128E+22
          6243.41          6243.4        1.60169        0.996901        0.206967E+22
          6243.19          6243.18        1.60175        0.987702        0.205045E+22
          6242.97          6242.96        1.6018        0.935359        0.194167E+22
          6242.75          6242.74        1.60186        0.984004        0.204252E+22
          6242.53          6242.52        1.60192        0.99568        0.206663E+22
          6242.31          6242.3        1.60197        0.942065        0.195523E+22
          6242.09          6242.08        1.60203        0.958081        0.198835E+22
          6241.87          6241.86        1.60209        0.951635        0.197485E+22
          6241.65          6241.64        1.60214        0.981897        0.203753E+22
          6241.43          6241.42        1.6022        0.996996        0.206873E+22
          6241.21          6241.2        1.60226        0.995981        0.206650E+22
          6240.99          6240.98        1.60231        0.971054        0.201466E+22
          6240.77          6240.76        1.60237        0.994223        0.206260E+22
          6240.55          6240.54        1.60242        0.939399        0.194874E+22
          6240.33          6240.32        1.60248        0.989589        0.205273E+22
          6240.11          6240.1        1.60254        0.96131        0.199395E+22
          6239.89          6239.88        1.60259        0.849512        0.176195E+22
          6239.67          6239.66        1.60265        0.939134        0.194772E+22
          6239.45          6239.44        1.60271        0.986281        0.204537E+22
          6239.23          6239.22        1.60276        0.989807        0.205256E+22
          6239.01          6239        1.60282        0.99652        0.206635E+22
          6238.79          6238.78        1.60288        0.963869        0.199852E+22
          6238.57          6238.56        1.60293        0.989538        0.205162E+22
          6238.35          6238.34        1.60299        0.997351        0.206769E+22
          6238.13          6238.12        1.60305        0.997386        0.206764E+22
          6237.91          6237.9        1.6031        0.997396        0.206753E+22
          6237.69          6237.68        1.60316        0.997389        0.206739E+22
          6237.47          6237.46        1.60322        0.997344        0.206717E+22
          6237.25          6237.24        1.60327        0.996144        0.206456E+22
          6237.03          6237.02        1.60333        0.986108        0.204363E+22
          6236.81          6236.8        1.60339        0.91306        0.189213E+22
          6236.59          6236.58        1.60344        0.995529        0.206290E+22
          6236.37          6236.36        1.6035        0.996101        0.206396E+22
          6236.15          6236.14        1.60356        0.994233        0.205997E+22
          6235.93          6235.92        1.60361        0.997211        0.206601E+22
          6235.71          6235.7        1.60367        0.995733        0.206282E+22
          6235.49          6235.48        1.60372        0.997149        0.206563E+22
          6235.27          6235.26        1.60378        0.989714        0.205010E+22
          6235.05          6235.04        1.60384        0.996892        0.206484E+22
          6234.83          6234.82        1.60389        0.993831        0.205837E+22
          6234.61          6234.6        1.60395        0.995121        0.206092E+22
          6234.39          6234.38        1.60401        0.995626        0.206184E+22
          6234.17          6234.16        1.60406        0.995486        0.206142E+22
          6233.95          6233.94        1.60412        0.987493        0.204474E+22
          6233.73          6233.72        1.60418        0.964591        0.199720E+22
          6233.51          6233.5        1.60423        0.784041        0.162327E+22
          6233.29          6233.28        1.60429        0.970332        0.200884E+22
          6233.07          6233.06        1.60435        0.954623        0.197620E+22
          6232.85          6232.84        1.6044        0.972085        0.201222E+22
          6232.63          6232.62        1.60446        0.937586        0.194069E+22
          6232.41          6232.4        1.60452        0.723469        0.149740E+22
          6232.19          6232.18        1.60457        0.969525        0.200655E+22
          6231.97          6231.96        1.60463        0.956986        0.198048E+22
          6231.75          6231.74        1.60469        0.885643        0.183272E+22
          6231.53          6231.52        1.60474        0.929834        0.192405E+22
          6231.31          6231.3        1.6048        0.975547        0.201852E+22
          6231.09          6231.08        1.60486        0.98039        0.202841E+22
          6230.87          6230.86        1.60491        0.989495        0.204712E+22
          6230.65          6230.64        1.60497        0.985925        0.203961E+22
          6230.43          6230.42        1.60503        0.987129        0.204198E+22
          6230.21          6230.2        1.60508        0.990775        0.204939E+22
          6229.99          6229.98        1.60514        0.993565        0.205504E+22
          6229.77          6229.76        1.6052        0.992937        0.205361E+22
          6229.55          6229.54        1.60525        0.995326        0.205843E+22
          6229.33          6229.32        1.60531        0.991875        0.205116E+22
          6229.11          6229.1        1.60537        0.984863        0.203654E+22
          6228.89          6228.88        1.60542        0.993722        0.205473E+22
          6228.67          6228.66        1.60548        0.995994        0.205930E+22
          6228.45          6228.44        1.60554        0.995737        0.205864E+22
          6228.23          6228.22        1.60559        0.975877        0.201746E+22
          6228.01          6228        1.60565        0.991546        0.204972E+22
          6227.79          6227.78        1.60571        0.994362        0.205542E+22
          6227.57          6227.56        1.60576        0.995908        0.205849E+22
          6227.35          6227.34        1.60582        0.99585        0.205824E+22
          6227.13          6227.12        1.60588        0.995752        0.205791E+22
          6226.91          6226.9        1.60593        0.995574        0.205741E+22
          6226.69          6226.68        1.60599        0.981233        0.202765E+22
          6226.47          6226.46        1.60605        0.99493        0.205583E+22
          6226.25          6226.24        1.6061        0.993677        0.205311E+22
          6226.03          6226.02        1.60616        0.991617        0.204873E+22
          6225.81          6225.8        1.60622        0.991464        0.204829E+22
          6225.59          6225.58        1.60628        0.98891        0.204288E+22
          6225.37          6225.36        1.60633        0.978047        0.202032E+22
          6225.15          6225.14        1.60639        0.916686        0.189345E+22
          6224.93          6224.92        1.60645        0.579558        0.119703E+22
          6224.71          6224.7        1.6065        0.941384        0.194422E+22
          6224.49          6224.48        1.60656        0.979886        0.202362E+22
          6224.27          6224.26        1.60662        0.981187        0.202618E+22
          6224.05          6224.04        1.60667        0.990987        0.204629E+22
          6223.83          6223.82        1.60673        0.993932        0.205224E+22
          6223.61          6223.6        1.60679        0.989004        0.204194E+22
          6223.39          6223.38        1.60684        0.993907        0.205194E+22
          6223.17          6223.16        1.6069        0.987266        0.203810E+22
          6222.95          6222.94        1.60696        0.989277        0.204213E+22
          6222.73          6222.72        1.60701        0.994772        0.205334E+22
          6222.51          6222.5        1.60707        0.994994        0.205367E+22
          6222.29          6222.28        1.60713        0.991523        0.204638E+22
          6222.07          6222.06        1.60718        0.994901        0.205323E+22
          6221.85          6221.84        1.60724        0.994573        0.205242E+22
          6221.63          6221.62        1.6073        0.994657        0.205247E+22
          6221.41          6221.4        1.60735        0.993924        0.205083E+22
          6221.19          6221.18        1.60741        0.981395        0.202485E+22
          6220.97          6220.96        1.60747        0.905537        0.186822E+22
          6220.75          6220.74        1.60752        0.981208        0.202421E+22
          6220.53          6220.52        1.60758        0.75364        0.155465E+22
          6220.31          6220.3        1.60764        0.946927        0.195325E+22
          6220.09          6220.08        1.6077        0.962175        0.198458E+22
          6219.87          6219.86        1.60775        0.98964        0.204110E+22
          6219.65          6219.64        1.60781        0.956441        0.197251E+22
          6219.43          6219.42        1.60787        0.980765        0.202254E+22
          6219.21          6219.2        1.60792        0.986675        0.203461E+22
          6218.99          6218.98        1.60798        0.965903        0.199165E+22
          6218.77          6218.76        1.60804        0.738233        0.152211E+22
          6218.55          6218.54        1.60809        0.977596        0.201551E+22
          6218.33          6218.32        1.60815        0.99017        0.204131E+22
          6218.11          6218.1        1.60821        0.990597        0.204206E+22
          6217.89          6217.88        1.60826        0.990982        0.204273E+22
          6217.67          6217.66        1.60832        0.992885        0.204652E+22
          6217.45          6217.44        1.60838        0.993126        0.204689E+22
          6217.23          6217.22        1.60843        0.993122        0.204675E+22
          6217.01          6217        1.60849        0.99164        0.204357E+22
          6216.79          6216.78        1.60855        0.989796        0.203965E+22
          6216.57          6216.56        1.60861        0.992426        0.204494E+22
          6216.35          6216.34        1.60866        0.984892        0.202929E+22
          6216.13          6216.12        1.60872        0.948568        0.195432E+22
          6215.91          6215.9        1.60878        0.987969        0.203538E+22
          6215.69          6215.68        1.60883        0.991428        0.204237E+22
          6215.47          6215.46        1.60889        0.991409        0.204221E+22
          6215.25          6215.24        1.60895        0.990576        0.204036E+22
          6215.03          6215.02        1.609        0.990592        0.204027E+22
          6214.81          6214.8        1.60906        0.978885        0.201603E+22
          6214.59          6214.58        1.60912        0.97598        0.200993E+22
          6214.37          6214.36        1.60918        0.948471        0.195315E+22
          6214.15          6214.14        1.60923        0.981091        0.202020E+22
          6213.93          6213.92        1.60929        0.93519        0.192556E+22
          6213.71          6213.7        1.60935        0.952657        0.196141E+22
          6213.49          6213.48        1.6094        0.933707        0.192227E+22
          6213.27          6213.26        1.60946        0.982141        0.202186E+22
          6213.05          6213.04        1.60952        0.977392        0.201195E+22
          6212.83          6212.82        1.60957        0.978416        0.201394E+22
          6212.61          6212.6        1.60963        0.98196        0.202111E+22
          6212.39          6212.38        1.60969        0.979207        0.201531E+22
          6212.17          6212.16        1.60975        0.968417        0.199298E+22
          6211.95          6211.94        1.6098        0.933348        0.192069E+22
          6211.73          6211.72        1.60986        0.875906        0.180237E+22
          6211.51          6211.5        1.60992        0.52034        0.107065E+22
          6211.29          6211.28        1.60997        0.86223        0.177401E+22
          6211.07          6211.06        1.61003        0.946        0.194624E+22
          6210.85          6210.84        1.61009        0.968114        0.199161E+22
          6210.63          6210.62        1.61014        0.974533        0.200469E+22
          6210.41          6210.4        1.6102        0.974255        0.200400E+22
          6210.19          6210.18        1.61026        0.981701        0.201918E+22
          6209.97          6209.96        1.61032        0.983184        0.202211E+22
          6209.75          6209.74        1.61037        0.980782        0.201704E+22
          6209.53          6209.52        1.61043        0.950255        0.195414E+22
          6209.31          6209.3        1.61049        0.872465        0.179406E+22
          6209.09          6209.08        1.61054        0.969928        0.199435E+22
          6208.87          6208.86        1.6106        0.960355        0.197454E+22
          6208.65          6208.64        1.61066        0.799725        0.164417E+22
          6208.43          6208.42        1.61071        0.869969        0.178848E+22
          6208.21          6208.2        1.61077        0.96603        0.198583E+22
          6207.99          6207.98        1.61083        0.977611        0.200951E+22
          6207.77          6207.76        1.61089        0.979214        0.201268E+22
          6207.55          6207.54        1.61094        0.976429        0.200683E+22
          6207.33          6207.32        1.611        0.978582        0.201113E+22
          6207.11          6207.1        1.61106        0.980675        0.201531E+22
          6206.89          6206.88        1.61111        0.98124        0.201634E+22
          6206.67          6206.66        1.61117        0.978179        0.200993E+22
          6206.45          6206.44        1.61123        0.977549        0.200851E+22
          6206.23          6206.22        1.61129        0.981093        0.201566E+22
          6206.01          6206        1.61134        0.980924        0.201519E+22
          6205.79          6205.78        1.6114        0.980489        0.201417E+22
          6205.57          6205.56        1.61146        0.979926        0.201289E+22
          6205.35          6205.34        1.61151        0.979555        0.201200E+22
          6205.13          6205.12        1.61157        0.980088        0.201297E+22
          6204.91          6204.9        1.61163        0.98096        0.201463E+22
          6204.69          6204.68        1.61169        0.981539        0.201569E+22
          6204.47          6204.46        1.61174        0.98199        0.201649E+22
          6204.25          6204.24        1.6118        0.982132        0.201666E+22
          6204.03          6204.02        1.61186        0.978854        0.200980E+22
          6203.81          6203.8        1.61191        0.960789        0.197259E+22
          6203.59          6203.58        1.61197        0.925408        0.189983E+22
          6203.37          6203.36        1.61203        0.758876        0.155785E+22
          6203.15          6203.14        1.61209        0.958293        0.196709E+22
          6202.93          6202.92        1.61214        0.980726        0.201301E+22
          6202.71          6202.7        1.6122        0.977912        0.200711E+22
          6202.49          6202.48        1.61226        0.974154        0.199927E+22
          6202.27          6202.26        1.61231        0.924069        0.189636E+22
          6202.05          6202.04        1.61237        0.978994        0.200895E+22
          6201.83          6201.82        1.61243        0.985374        0.202192E+22
          6201.61          6201.6        1.61249        0.986202        0.202349E+22
          6201.39          6201.38        1.61254        0.987012        0.202502E+22
          6201.17          6201.16        1.6126        0.985633        0.202207E+22
          6200.95          6200.94        1.61266        0.973894        0.199786E+22
          6200.73          6200.72        1.61271        0.982825        0.201605E+22
          6200.51          6200.5        1.61277        0.956279        0.196148E+22
          6200.29          6200.28        1.61283        0.984397        0.201902E+22
          6200.07          6200.06        1.61289        0.980912        0.201175E+22
          6199.85          6199.84        1.61294        0.961121        0.197104E+22
          6199.63          6199.62        1.613        0.858095        0.175964E+22
          6199.41          6199.4        1.61306        0.81468        0.167051E+22
          6199.19          6199.18        1.61312        0.962677        0.197385E+22
          6198.97          6198.96        1.61317        0.977218        0.200354E+22
          6198.75          6198.74        1.61323        0.980908        0.201098E+22
          6198.53          6198.52        1.61329        0.96766        0.198370E+22
          6198.31          6198.3        1.61334        0.923764        0.189359E+22
          6198.09          6198.08        1.6134        0.960581        0.196894E+22
          6197.87          6197.86        1.61346        0.979205        0.200698E+22
          6197.65          6197.64        1.61352        0.963602        0.197488E+22
          6197.43          6197.42        1.61357        0.988245        0.202526E+22
          6197.21          6197.2        1.61363        0.989344        0.202738E+22
          6196.99          6196.98        1.61369        0.989209        0.202698E+22
          6196.77          6196.76        1.61375        0.97986        0.200769E+22
          6196.55          6196.54        1.6138        0.989535        0.202739E+22
          6196.33          6196.32        1.61386        0.988689        0.202553E+22
          6196.11          6196.1        1.61392        0.984516        0.201685E+22
          6195.89          6195.88        1.61397        0.977893        0.200316E+22
          6195.67          6195.66        1.61403        0.929225        0.190334E+22
          6195.45          6195.44        1.61409        0.959468        0.196517E+22
          6195.23          6195.22        1.61415        0.944492        0.193437E+22
          6195.01          6195        1.6142        0.989707        0.202684E+22
          6194.79          6194.78        1.61426        0.988911        0.202509E+22
          6194.57          6194.56        1.61432        0.992634        0.203258E+22
          6194.35          6194.34        1.61438        0.992805        0.203280E+22
          6194.13          6194.12        1.61443        0.993017        0.203311E+22
          6193.91          6193.9        1.61449        0.993135        0.203322E+22
          6193.69          6193.68        1.61455        0.992142        0.203106E+22
          6193.47          6193.46        1.61461        0.991497        0.202961E+22
          6193.25          6193.24        1.61466        0.989265        0.202491E+22
          6193.03          6193.02        1.61472        0.991572        0.202951E+22
          6192.81          6192.8        1.61478        0.993459        0.203324E+22
          6192.59          6192.58        1.61483        0.99093        0.202794E+22
          6192.37          6192.36        1.61489        0.983499        0.201260E+22
          6192.15          6192.14        1.61495        0.993637        0.203322E+22
          6191.93          6191.92        1.61501        0.993921        0.203367E+22
          6191.71          6191.7        1.61506        0.994011        0.203373E+22
          6191.49          6191.48        1.61512        0.992786        0.203109E+22
          6191.27          6191.26        1.61518        0.994108        0.203367E+22
          6191.05          6191.04        1.61524        0.991278        0.202775E+22
          6190.83          6190.82        1.61529        0.99417        0.203354E+22
          6190.61          6190.6        1.61535        0.993899        0.203286E+22
          6190.39          6190.38        1.61541        0.981139        0.200663E+22
          6190.17          6190.16        1.61547        0.978664        0.200144E+22
          6189.95          6189.94        1.61552        0.815625        0.166791E+22
          6189.73          6189.72        1.61558        0.985321        0.201480E+22
          6189.51          6189.5        1.61564        0.989715        0.202366E+22
          6189.29          6189.28        1.6157        0.972762        0.198887E+22
          6189.07          6189.06        1.61575        0.80147        0.163855E+22
          6188.85          6188.84        1.61581        0.968456        0.197981E+22
          6188.63          6188.62        1.61587        0.976849        0.199684E+22
          6188.41          6188.4        1.61593        0.98177        0.200678E+22
          6188.19          6188.18        1.61598        0.936501        0.191412E+22
          6187.97          6187.96        1.61604        0.985607        0.201436E+22
          6187.75          6187.74        1.6161        0.788112        0.161062E+22
          6187.53          6187.52        1.61616        0.903275        0.184586E+22
          6187.31          6187.3        1.61621        0.956517        0.195454E+22
          6187.09          6187.08        1.61627        0.991182        0.202524E+22
          6186.87          6186.86        1.61633        0.990889        0.202452E+22
          6186.65          6186.64        1.61639        0.99489        0.203256E+22
          6186.43          6186.42        1.61644        0.994671        0.203198E+22
          6186.21          6186.2        1.6165        0.973072        0.198773E+22
          6185.99          6185.98        1.61656        0.994665        0.203171E+22
          6185.77          6185.76        1.61662        0.994003        0.203023E+22
          6185.55          6185.54        1.61667        0.98186        0.200530E+22
          6185.33          6185.32        1.61673        0.946206        0.193236E+22
          6185.11          6185.1        1.61679        0.856368        0.174878E+22
          6184.89          6184.88        1.61685        0.883414        0.180390E+22
          6184.67          6184.66        1.6169        0.888632        0.181444E+22
          6184.45          6184.44        1.61696        0.676208        0.138061E+22
          6184.23          6184.22        1.61702        0.949376        0.193822E+22
          6184.01          6184        1.61708        0.98162        0.200392E+22
          6183.79          6183.78        1.61713        0.990158        0.202122E+22
          6183.57          6183.56        1.61719        0.992362        0.202559E+22
          6183.35          6183.34        1.61725        0.994642        0.203012E+22
          6183.13          6183.12        1.61731        0.970918        0.198157E+22
          6182.91          6182.9        1.61736        0.994648        0.202987E+22
          6182.69          6182.68        1.61742        0.987281        0.201471E+22
          6182.47          6182.46        1.61748        0.965238        0.196960E+22
          6182.25          6182.24        1.61754        0.994297        0.202877E+22
          6182.03          6182.02        1.61759        0.989503        0.201885E+22
          6181.81          6181.8        1.61765        0.936783        0.191117E+22
          6181.59          6181.58        1.61771        0.994769        0.202934E+22
          6181.37          6181.36        1.61777        0.995874        0.203146E+22
          6181.15          6181.14        1.61782        0.994217        0.202796E+22
          6180.93          6180.92        1.61788        0.983361        0.200568E+22
          6180.71          6180.7        1.61794        0.739546        0.150830E+22
          6180.49          6180.48        1.618        0.97931        0.199717E+22
          6180.27          6180.26        1.61805        0.993698        0.202638E+22
          6180.05          6180.04        1.61811        0.994477        0.202784E+22
          6179.83          6179.82        1.61817        0.975818        0.198966E+22
          6179.61          6179.6        1.61823        0.947955        0.193273E+22
          6179.39          6179.38        1.61828        0.983101        0.200426E+22
          6179.17          6179.16        1.61834        0.983248        0.200443E+22
          6178.95          6178.94        1.6184        0.74709        0.152291E+22
          6178.73          6178.72        1.61846        0.961269        0.195937E+22
          6178.51          6178.5        1.61851        0.860009        0.175286E+22
          6178.29          6178.28        1.61857        0.951567        0.193935E+22
          6178.07          6178.06        1.61863        0.984206        0.200574E+22
          6177.85          6177.84        1.61869        0.984829        0.200688E+22
          6177.63          6177.62        1.61875        0.996002        0.202952E+22
          6177.41          6177.4        1.6188        0.996216        0.202983E+22
          6177.19          6177.18        1.61886        0.99534        0.202791E+22
          6176.97          6176.96        1.61892        0.991608        0.202018E+22
          6176.75          6176.74        1.61898        0.965976        0.196783E+22
          6176.53          6176.52        1.61903        0.802705        0.163512E+22
          6176.31          6176.3        1.61909        0.930655        0.189564E+22
          6176.09          6176.08        1.61915        0.989022        0.201440E+22
          6175.87          6175.86        1.61921        0.995127        0.202670E+22
          6175.65          6175.64        1.61926        0.996234        0.202883E+22
          6175.43          6175.42        1.61932        0.996691        0.202963E+22
          6175.21          6175.2        1.61938        0.986791        0.200934E+22
          6174.99          6174.98        1.61944        0.996562        0.202910E+22
          6174.77          6174.76        1.6195        0.995545        0.202690E+22
          6174.55          6174.54        1.61955        0.988487        0.201240E+22
          6174.33          6174.32        1.61961        0.994447        0.202441E+22
          6174.11          6174.1        1.61967        0.993387        0.202212E+22
          6173.89          6173.88        1.61973        0.995224        0.202573E+22
          6173.67          6173.66        1.61978        0.988588        0.201209E+22
          6173.45          6173.44        1.61984        0.983708        0.200203E+22
          6173.23          6173.22        1.6199        0.971794        0.197766E+22
          6173.01          6173        1.61996        0.754533        0.153542E+22
          6172.79          6172.78        1.62001        0.979142        0.199236E+22
          6172.57          6172.56        1.62007        0.978123        0.199016E+22
          6172.35          6172.34        1.62013        0.787507        0.160221E+22
          6172.13          6172.12        1.62019        0.923058        0.187788E+22
          6171.91          6171.9        1.62025        0.964065        0.196117E+22
          6171.69          6171.68        1.6203        0.729727        0.148437E+22
          6171.47          6171.46        1.62036        0.963201        0.195917E+22
          6171.25          6171.24        1.62042        0.988243        0.200997E+22
          6171.03          6171.02        1.62048        0.990474        0.201438E+22
          6170.81          6170.8        1.62053        0.989241        0.201174E+22
          6170.59          6170.58        1.62059        0.908238        0.184690E+22
          6170.37          6170.36        1.62065        0.992179        0.201746E+22
          6170.15          6170.14        1.62071        0.978684        0.198989E+22
          6169.93          6169.92        1.62077        0.945069        0.192142E+22
          6169.71          6169.7        1.62082        0.950488        0.193231E+22
          6169.49          6169.48        1.62088        0.791541        0.160908E+22
          6169.27          6169.26        1.62094        0.984613        0.200143E+22
          6169.05          6169.04        1.621        0.994456        0.202131E+22
          6168.83          6168.82        1.62105        0.994691        0.202166E+22
          6168.61          6168.6        1.62111        0.977144        0.198587E+22
          6168.39          6168.38        1.62117        0.953161        0.193700E+22
          6168.17          6168.16        1.62123        0.696723        0.141578E+22
          6167.95          6167.94        1.62129        0.973956        0.197901E+22
          6167.73          6167.72        1.62134        0.99193        0.201540E+22
          6167.51          6167.5        1.6214        0.985991        0.200320E+22
          6167.29          6167.28        1.62146        0.984625        0.200030E+22
          6167.07          6167.06        1.62152        0.996993        0.202529E+22
          6166.85          6166.84        1.62158        0.997055        0.202529E+22
          6166.63          6166.62        1.62163        0.995565        0.202213E+22
          6166.41          6166.4        1.62169        0.987877        0.200639E+22
          6166.19          6166.18        1.62175        0.878511        0.178415E+22
          6165.97          6165.96        1.62181        0.754435        0.153207E+22
          6165.75          6165.74        1.62186        0.969839        0.196937E+22
          6165.53          6165.52        1.62192        0.968532        0.196659E+22
          6165.31          6165.3        1.62198        0.873355        0.177322E+22
          6165.09          6165.08        1.62204        0.80239        0.162903E+22
          6164.87          6164.86        1.6221        0.980091        0.198968E+22
          6164.65          6164.64        1.62215        0.990048        0.200976E+22
          6164.43          6164.42        1.62221        0.98598        0.200137E+22
          6164.21          6164.2        1.62227        0.9947        0.201894E+22
          6163.99          6163.98        1.62233        0.996615        0.202270E+22
          6163.88          6163.87        1.62236        0.997058        0.202353E+22