File: input/common/input/solar/solar_spectrum_02368_1.txt
Solar Doppler Velocity [m/s]:   298.33                # Note: Positive means FOV moving TOWARDS the sun.
Solar Intensity Units are: ph/s/m^2/um
Distance to Sun in AU:    1.00721
S = Solar Rest Frame.  E = earth-centered rest frame.
        Wavenumber_E        Wavenumber_S   Wavelength_S [um]       Transmittance           Intensity
         13200.2         13200.2        0.757562        0.967478        0.467949E+22
         13199.8         13199.8        0.757587        0.987454        0.477599E+22
         13199.4         13199.4        0.757613        0.595204        0.287873E+22
         13198.9         13198.9        0.757638        0.989335        0.478484E+22
         13198.5         13198.5        0.757663        0.994078        0.480766E+22
         13198         13198        0.757688        0.994948        0.481175E+22
         13197.6         13197.6        0.757714        0.999908        0.483561E+22
         13197.2         13197.2        0.757739        0.993574        0.480486E+22
         13196.7         13196.7        0.757764        0.997048        0.482153E+22
         13196.3         13196.3        0.757789        0.999439        0.483297E+22
         13195.9         13195.8        0.757815        0.99999        0.483551E+22
         13195.4         13195.4        0.75784        0.999987        0.483537E+22
         13195         13195        0.757865        0.99998        0.483522E+22
         13194.5         13194.5        0.757891        0.999969        0.483504E+22
         13194.1         13194.1        0.757916        0.999948        0.483482E+22
         13193.6         13193.6        0.757941        0.996548        0.481826E+22
         13193.2         13193.2        0.757966        0.999747        0.483360E+22
         13192.8         13192.8        0.757992        0.999445        0.483202E+22
         13192.3         13192.3        0.758017        0.999321        0.483130E+22
         13191.9         13191.9        0.758042        0.998265        0.482607E+22
         13191.5         13191.4        0.758068        0.993416        0.480250E+22
         13191         13191        0.758093        0.971225        0.469510E+22
         13190.6         13190.6        0.758118        0.996479        0.481706E+22
         13190.1         13190.1        0.758143        0.995861        0.481395E+22
         13189.7         13189.7        0.758169        0.999131        0.482964E+22
         13189.2         13189.2        0.758194        0.999602        0.483179E+22
         13188.8         13188.8        0.758219        0.999603        0.483167E+22
         13188.4         13188.4        0.758245        0.996098        0.481461E+22
         13187.9         13187.9        0.75827        0.994226        0.480544E+22
         13187.5         13187.5        0.758295        0.999849        0.483249E+22
         13187         13187        0.75832        0.999873        0.483249E+22
         13186.6         13186.6        0.758346        0.994261        0.480524E+22
         13186.2         13186.2        0.758371        0.991373        0.479116E+22
         13185.7         13185.7        0.758396        0.995913        0.481298E+22
         13185.3         13185.3        0.758422        0.923645        0.446361E+22
         13184.9         13184.8        0.758447        0.998171        0.482365E+22
         13184.4         13184.4        0.758472        0.999609        0.483047E+22
         13184         13184        0.758498        0.999824        0.483138E+22
         13183.5         13183.5        0.758523        0.986995        0.476927E+22
         13183.1         13183.1        0.758548        0.998928        0.482681E+22
         13182.6         13182.6        0.758574        0.952221        0.460100E+22
         13182.2         13182.2        0.758599        0.84904        0.410234E+22
         13181.8         13181.8        0.758624        0.997301        0.481858E+22
         13181.3         13181.3        0.75865        0.998368        0.482361E+22
         13180.9         13180.9        0.758675        0.997773        0.482061E+22
         13180.5         13180.4        0.7587        0.997672        0.482000E+22
         13180         13180        0.758726        0.997671        0.481988E+22
         13179.6         13179.6        0.758751        0.993691        0.480052E+22
         13179.1         13179.1        0.758776        0.975813        0.471403E+22
         13178.7         13178.7        0.758802        0.739805        0.357382E+22
         13178.2         13178.2        0.758827        0.864783        0.417745E+22
         13177.8         13177.8        0.758852        0.981649        0.474186E+22
         13177.4         13177.4        0.758878        0.987562        0.477031E+22
         13176.9         13176.9        0.758903        0.995938        0.481064E+22
         13176.5         13176.5        0.758928        0.99852        0.482299E+22
         13176         13176        0.758954        0.998983        0.482510E+22
         13175.6         13175.6        0.758979        0.998683        0.482353E+22
         13175.2         13175.2        0.759004        0.99608        0.481083E+22
         13174.7         13174.7        0.75903        0.949337        0.458496E+22
         13174.3         13174.3        0.759055        0.974497        0.470635E+22
         13173.9         13173.8        0.75908        0.992054        0.479102E+22
         13173.4         13173.4        0.759106        0.985921        0.476128E+22
         13173         13173        0.759131        0.999116        0.482488E+22
         13172.5         13172.5        0.759156        0.998946        0.482393E+22
         13172.1         13172.1        0.759182        0.999117        0.482464E+22
         13171.6         13171.6        0.759207        0.995127        0.480524E+22
         13171.2         13171.2        0.759232        0.9994        0.482575E+22
         13170.8         13170.8        0.759258        0.992038        0.479008E+22
         13170.3         13170.3        0.759283        0.988415        0.477247E+22
         13169.9         13169.9        0.759309        0.999287        0.482484E+22
         13169.5         13169.4        0.759334        0.99432        0.480073E+22
         13169         13169        0.759359        0.999075        0.482357E+22
         13168.6         13168.6        0.759385        0.989298        0.477624E+22
         13168.1         13168.1        0.75941        0.997206        0.481430E+22
         13167.7         13167.7        0.759435        0.999071        0.482318E+22
         13167.2         13167.2        0.759461        0.995293        0.480481E+22
         13166.8         13166.8        0.759486        0.997883        0.481719E+22
         13166.4         13166.4        0.759512        0.998878        0.482187E+22
         13165.9         13165.9        0.759537        0.998803        0.482139E+22
         13165.5         13165.5        0.759562        0.99872        0.482086E+22
         13165         13165        0.759588        0.99863        0.482030E+22
         13164.6         13164.6        0.759613        0.9972        0.481328E+22
         13164.2         13164.2        0.759638        0.992938        0.479259E+22
         13163.7         13163.7        0.759664        0.998302        0.481835E+22
         13163.3         13163.3        0.759689        0.998031        0.481692E+22
         13162.9         13162.8        0.759715        0.998027        0.481678E+22
         13162.4         13162.4        0.75974        0.997861        0.481585E+22
         13162         13162        0.759765        0.997668        0.481480E+22
         13161.5         13161.5        0.759791        0.997433        0.481354E+22
         13161.1         13161.1        0.759816        0.997112        0.481186E+22
         13160.6         13160.6        0.759842        0.996552        0.480904E+22
         13160.2         13160.2        0.759867        0.994794        0.480043E+22
         13159.8         13159.8        0.759892        0.979519        0.472660E+22
         13159.3         13159.3        0.759918        0.994626        0.479938E+22
         13158.9         13158.9        0.759943        0.977783        0.471798E+22
         13158.5         13158.4        0.759969        0.995133        0.480158E+22
         13158         13158        0.759994        0.994701        0.479937E+22
         13157.6         13157.6        0.76002        0.994127        0.479648E+22
         13157.1         13157.1        0.760045        0.991621        0.478426E+22
         13156.7         13156.7        0.76007        0.992572        0.478872E+22
         13156.2         13156.2        0.760096        0.991533        0.478359E+22
         13155.8         13155.8        0.760121        0.990246        0.477726E+22
         13155.4         13155.4        0.760147        0.988612        0.476925E+22
         13154.9         13154.9        0.760172        0.986462        0.475876E+22
         13154.5         13154.5        0.760197        0.983475        0.474423E+22
         13154         13154        0.760223        0.978921        0.472214E+22
         13153.6         13153.6        0.760248        0.970529        0.468153E+22
         13153.2         13153.2        0.760274        0.935593        0.451290E+22
         13152.7         13152.7        0.760299        0.948198        0.457358E+22
         13152.3         13152.3        0.760325        0.962942        0.464458E+22
         13151.9         13151.8        0.76035        0.974023        0.469790E+22
         13151.4         13151.4        0.760375        0.980299        0.472805E+22
         13151         13151        0.760401        0.984224        0.474686E+22
         13150.5         13150.5        0.760426        0.986941        0.475984E+22
         13150.1         13150.1        0.760452        0.988949        0.476940E+22
         13149.6         13149.6        0.760477        0.990497        0.477675E+22
         13149.2         13149.2        0.760503        0.991728        0.478256E+22
         13148.8         13148.8        0.760528        0.992728        0.478726E+22
         13148.3         13148.3        0.760554        0.993553        0.479111E+22
         13147.9         13147.9        0.760579        0.994241        0.479431E+22
         13147.5         13147.4        0.760605        0.994819        0.479697E+22
         13147         13147        0.76063        0.995302        0.479917E+22
         13146.6         13146.6        0.760655        0.99569        0.480092E+22
         13146.1         13146.1        0.760681        0.995941        0.480201E+22
         13145.7         13145.7        0.760706        0.995619        0.480033E+22
         13145.2         13145.2        0.760732        0.977818        0.471438E+22
         13144.8         13144.8        0.760757        0.96066        0.463154E+22
         13144.4         13144.4        0.760783        0.994079        0.479253E+22
         13143.9         13143.9        0.760808        0.989938        0.477245E+22
         13143.5         13143.5        0.760834        0.967733        0.466528E+22
         13143         13143        0.760859        0.88638        0.427298E+22
         13142.6         13142.6        0.760885        0.985323        0.474983E+22
         13142.2         13142.2        0.76091        0.994009        0.479158E+22
         13141.7         13141.7        0.760936        0.996354        0.480276E+22
         13141.3         13141.3        0.760961        0.997186        0.480665E+22
         13140.9         13140.8        0.760987        0.997455        0.480782E+22
         13140.4         13140.4        0.761012        0.997395        0.480740E+22
         13140         13140        0.761038        0.996994        0.480534E+22
         13139.5         13139.5        0.761063        0.996003        0.480044E+22
         13139.1         13139.1        0.761088        0.993466        0.478809E+22
         13138.6         13138.6        0.761114        0.982397        0.473462E+22
         13138.2         13138.2        0.761139        0.98921        0.476733E+22
         13137.8         13137.8        0.761165        0.993658        0.478865E+22
         13137.3         13137.3        0.76119        0.991756        0.477936E+22
         13136.9         13136.9        0.761216        0.973266        0.469013E+22
         13136.5         13136.4        0.761241        0.93301        0.449602E+22
         13136         13136        0.761267        0.990178        0.477138E+22
         13135.6         13135.6        0.761292        0.996198        0.480027E+22
         13135.1         13135.1        0.761318        0.997883        0.480826E+22
         13134.7         13134.7        0.761343        0.998582        0.481151E+22
         13134.2         13134.2        0.761369        0.998936        0.481308E+22
         13133.8         13133.8        0.761394        0.999138        0.481394E+22
         13133.4         13133.4        0.76142        0.999267        0.481443E+22
         13132.9         13132.9        0.761445        0.999353        0.481472E+22
         13132.5         13132.5        0.761471        0.999413        0.481489E+22
         13132         13132        0.761496        0.999454        0.481496E+22
         13131.6         13131.6        0.761522        0.999475        0.481494E+22
         13131.2         13131.2        0.761548        0.999469        0.481478E+22
         13130.7         13130.7        0.761573        0.999404        0.481434E+22
         13130.3         13130.3        0.761599        0.999174        0.481311E+22
         13129.9         13129.8        0.761624        0.998226        0.480842E+22
         13129.4         13129.4        0.76165        0.986281        0.475076E+22
         13129         13129        0.761675        0.985194        0.474540E+22
         13128.5         13128.5        0.761701        0.973686        0.468984E+22
         13128.1         13128.1        0.761726        0.996372        0.479899E+22
         13127.6         13127.6        0.761752        0.996566        0.479980E+22
         13127.2         13127.2        0.761777        0.987995        0.475840E+22
         13126.8         13126.8        0.761803        0.944579        0.454918E+22
         13126.3         13126.3        0.761828        0.992763        0.478111E+22
         13125.9         13125.9        0.761854        0.996299        0.479801E+22
         13125.5         13125.4        0.761879        0.985421        0.474551E+22
         13125         13125        0.761905        0.503694        0.242558E+22
         13124.6         13124.6        0.76193        0.908408        0.437441E+22
         13124.1         13124.1        0.761956        0.996254        0.479730E+22
         13123.7         13123.7        0.761982        0.999128        0.481102E+22
         13123.2         13123.2        0.762007        0.926829        0.446277E+22
         13122.8         13122.8        0.762033        0.993974        0.478595E+22
         13122.4         13122.4        0.762058        0.999251        0.481123E+22
         13121.9         13121.9        0.762084        0.995066        0.479096E+22
         13121.5         13121.5        0.762109        0.986954        0.475178E+22
         13121         13121        0.762135        0.643332        0.309730E+22
         13120.6         13120.6        0.76216        0.995235        0.479140E+22
         13120.2         13120.2        0.762186        0.999437        0.481150E+22
         13119.7         13119.7        0.762212        0.995208        0.479102E+22
         13119.3         13119.3        0.762237        0.997828        0.480350E+22
         13118.9         13118.8        0.762263        0.616977        0.297003E+22
         13118.4         13118.4        0.762288        0.998602        0.480698E+22
         13118         13118        0.762314        0.999867        0.481294E+22
         13117.5         13117.5        0.762339        0.999897        0.481296E+22
         13117.1         13117.1        0.762365        0.999903        0.481287E+22
         13116.6         13116.6        0.762391        0.999907        0.481276E+22
         13116.2         13116.2        0.762416        0.999862        0.481242E+22
         13115.8         13115.8        0.762442        0.981212        0.472253E+22
         13115.3         13115.3        0.762467        0.999914        0.481242E+22
         13114.9         13114.9        0.762493        0.99992        0.481232E+22
         13114.5         13114.4        0.762518        0.999923        0.481221E+22
         13114         13114        0.762544        0.999926        0.481210E+22
         13113.6         13113.6        0.76257        0.999929        0.481199E+22
         13113.1         13113.1        0.762595        0.99993        0.481187E+22
         13112.7         13112.7        0.762621        0.999908        0.481164E+22
         13112.2         13112.2        0.762646        0.997603        0.480042E+22
         13111.8         13111.8        0.762672        0.97782        0.470510E+22
         13111.4         13111.4        0.762698        0.985275        0.474085E+22
         13110.9         13110.9        0.762723        0.999965        0.481141E+22
         13110.5         13110.5        0.762749        0.999999        0.481145E+22
         13110         13110        0.762774        1        0.481133E+22
         13109.6         13109.6        0.7628        1        0.481120E+22
         13109.2         13109.2        0.762826        1        0.481107E+22
         13108.7         13108.7        0.762851        0.999999        0.481095E+22
         13108.3         13108.3        0.762877        0.999998        0.481082E+22
         13107.9         13107.8        0.762902        0.999996        0.481068E+22
         13107.4         13107.4        0.762928        0.99998        0.481048E+22
         13107         13107        0.762954        0.999592        0.480849E+22
         13106.5         13106.5        0.762979        0.987689        0.475110E+22
         13106.1         13106.1        0.763005        0.985449        0.474021E+22
         13105.6         13105.6        0.76303        0.999913        0.480965E+22
         13105.2         13105.2        0.763056        0.999754        0.480876E+22
         13104.8         13104.8        0.763082        0.998645        0.480330E+22
         13104.3         13104.3        0.763107        0.988125        0.475258E+22
         13103.9         13103.9        0.763133        0.987112        0.474758E+22
         13103.5         13103.4        0.763159        0.995364        0.478715E+22
         13103         13103        0.763184        0.990386        0.476308E+22
         13102.6         13102.6        0.76321        0.987262        0.474794E+22
         13102.1         13102.1        0.763235        0.999451        0.480642E+22
         13101.7         13101.7        0.763261        0.99992        0.480855E+22
         13101.2         13101.2        0.763287        0.999977        0.480870E+22
         13100.8         13100.8        0.763312        0.999991        0.480865E+22
         13100.4         13100.4        0.763338        0.999996        0.480854E+22
         13099.9         13099.9        0.763364        0.999998        0.480843E+22
         13099.5         13099.5        0.763389        0.999999        0.480831E+22
         13099         13099        0.763415        0.999999        0.480818E+22
         13098.6         13098.6        0.763441        0.999944        0.480779E+22
         13098.2         13098.2        0.763466        0.999983        0.480785E+22
         13097.7         13097.7        0.763492        0.999993        0.480777E+22
         13097.3         13097.3        0.763517        0.999942        0.480740E+22
         13096.9         13096.8        0.763543        0.997744        0.479671E+22
         13096.4         13096.4        0.763569        0.985684        0.473861E+22
         13096         13096        0.763594        0.999008        0.480254E+22
         13095.5         13095.5        0.76362        0.987949        0.474925E+22
         13095.1         13095.1        0.763646        0.999983        0.480697E+22
         13094.6         13094.6        0.763671        0.999979        0.480683E+22
         13094.2         13094.2        0.763697        0.999953        0.480658E+22
         13093.8         13093.8        0.763723        0.999872        0.480606E+22
         13093.3         13093.3        0.763748        0.99956        0.480443E+22
         13092.9         13092.9        0.763774        0.997468        0.479425E+22
         13092.5         13092.4        0.7638        0.977236        0.469689E+22
         13092         13092        0.763825        0.998721        0.480002E+22
         13091.6         13091.6        0.763851        0.999637        0.480430E+22
         13091.1         13091.1        0.763877        0.99972        0.480457E+22
         13090.7         13090.7        0.763902        0.999511        0.480344E+22
         13090.2         13090.2        0.763928        0.998612        0.479900E+22
         13089.8         13089.8        0.763954        0.989656        0.475583E+22
         13089.4         13089.4        0.763979        0.996022        0.478630E+22
         13088.9         13088.9        0.764005        0.99909        0.480092E+22
         13088.5         13088.5        0.764031        0.999593        0.480321E+22
         13088         13088        0.764057        0.999658        0.480339E+22
         13087.6         13087.6        0.764082        0.999267        0.480139E+22
         13087.2         13087.2        0.764108        0.993986        0.477589E+22
         13086.7         13086.7        0.764134        0.998002        0.479506E+22
         13086.3         13086.3        0.764159        0.999366        0.480149E+22
         13085.9         13085.8        0.764185        0.998879        0.479902E+22
         13085.4         13085.4        0.764211        0.993922        0.477508E+22
         13085         13085        0.764236        0.867795        0.416902E+22
         13084.5         13084.5        0.764262        0.990332        0.475758E+22
         13084.1         13084.1        0.764288        0.998687        0.479759E+22
         13083.6         13083.6        0.764313        0.999649        0.480209E+22
         13083.2         13083.2        0.764339        0.999879        0.480307E+22
         13082.8         13082.8        0.764365        0.999951        0.480329E+22
         13082.3         13082.3        0.764391        0.999978        0.480329E+22
         13081.9         13081.9        0.764416        0.99999        0.480322E+22
         13081.5         13081.4        0.764442        0.999995        0.480312E+22
         13081         13081        0.764468        0.999997        0.480300E+22
         13080.6         13080.6        0.764493        0.999998        0.480288E+22
         13080.1         13080.1        0.764519        0.999999        0.480276E+22
         13079.7         13079.7        0.764545        1        0.480264E+22
         13079.2         13079.2        0.764571        1        0.480251E+22
         13078.8         13078.8        0.764596        0.999366        0.479934E+22
         13078.4         13078.4        0.764622        0.999657        0.480061E+22
         13077.9         13077.9        0.764648        1        0.480213E+22
         13077.5         13077.5        0.764673        1        0.480201E+22
         13077         13077        0.764699        1        0.480188E+22
         13076.6         13076.6        0.764725        1        0.480175E+22
         13076.2         13076.2        0.764751        1        0.480162E+22
         13075.7         13075.7        0.764776        0.999951        0.480126E+22
         13075.3         13075.3        0.764802        0.999615        0.479953E+22
         13074.9         13074.8        0.764828        0.999999        0.480124E+22
         13074.4         13074.4        0.764854        1        0.480112E+22
         13074         13074        0.764879        1        0.480099E+22
         13073.5         13073.5        0.764905        1        0.480087E+22
         13073.1         13073.1        0.764931        0.999998        0.480073E+22
         13072.6         13072.6        0.764957        0.997689        0.478952E+22
         13072.2         13072.2        0.764982        0.994902        0.477602E+22
         13071.8         13071.8        0.765008        0.981326        0.471072E+22
         13071.3         13071.3        0.765034        0.998065        0.479095E+22
         13070.9         13070.9        0.76506        0.99997        0.479996E+22
         13070.5         13070.4        0.765085        0.999998        0.479997E+22
         13070         13070        0.765111        1        0.479985E+22
         13069.6         13069.6        0.765137        1        0.479973E+22
         13069.1         13069.1        0.765163        1        0.479960E+22
         13068.7         13068.7        0.765188        1        0.479947E+22
         13068.2         13068.2        0.765214        0.999998        0.479934E+22
         13067.8         13067.8        0.76524        0.999986        0.479915E+22
         13067.4         13067.4        0.765266        0.999718        0.479774E+22
         13066.9         13066.9        0.765291        0.990446        0.475312E+22
         13066.5         13066.5        0.765317        0.981383        0.470950E+22
         13066         13066        0.765343        0.999347        0.479558E+22
         13065.6         13065.6        0.765369        0.999361        0.479552E+22
         13065.2         13065.2        0.765395        0.999996        0.479844E+22
         13064.7         13064.7        0.76542        0.999996        0.479832E+22
         13064.3         13064.3        0.765446        0.999837        0.479743E+22
         13063.9         13063.8        0.765472        0.999211        0.479429E+22
         13063.4         13063.4        0.765498        0.999986        0.479789E+22
         13063         13063        0.765523        0.999939        0.479753E+22
         13062.5         13062.5        0.765549        0.997339        0.478493E+22
         13062.1         13062.1        0.765575        0.958964        0.460070E+22
         13061.6         13061.6        0.765601        0.975124        0.467811E+22
         13061.2         13061.2        0.765627        0.999311        0.479401E+22
         13060.8         13060.8        0.765652        0.972188        0.466377E+22
         13060.3         13060.3        0.765678        0.993649        0.476660E+22
         13059.9         13059.9        0.765704        0.985321        0.472652E+22
         13059.5         13059.4        0.76573        0.996211        0.477863E+22
         13059         13059        0.765756        0.941663        0.451686E+22
         13058.6         13058.6        0.765781        0.992432        0.476026E+22
         13058.1         13058.1        0.765807        0.998546        0.478945E+22
         13057.7         13057.7        0.765833        0.999387        0.479336E+22
         13057.2         13057.2        0.765859        0.999361        0.479311E+22
         13056.8         13056.8        0.765885        0.998543        0.478906E+22
         13056.4         13056.4        0.76591        0.994383        0.476898E+22
         13055.9         13055.9        0.765936        0.929469        0.445754E+22
         13055.5         13055.5        0.765962        0.759778        0.364364E+22
         13055         13055        0.765988        0.903505        0.433280E+22
         13054.6         13054.6        0.766014        0.989295        0.474408E+22
         13054.2         13054.2        0.76604        0.976405        0.468214E+22
         13053.7         13053.7        0.766065        0.992347        0.475846E+22
         13053.3         13053.3        0.766091        0.98652        0.473040E+22
         13052.9         13052.8        0.766117        0.813093        0.389870E+22
         13052.4         13052.4        0.766143        0.923443        0.442771E+22
         13052         13052        0.766169        0.988999        0.474190E+22
         13051.5         13051.5        0.766194        0.863507        0.414010E+22
         13051.1         13051.1        0.76622        0.975929        0.467899E+22
         13050.6         13050.6        0.766246        0.99833        0.478626E+22
         13050.2         13050.2        0.766272        0.999085        0.478976E+22
         13049.8         13049.8        0.766298        0.995439        0.477215E+22
         13049.3         13049.3        0.766324        0.783532        0.375617E+22
         13048.9         13048.9        0.766349        0.952169        0.456447E+22
         13048.5         13048.4        0.766375        0.994519        0.476736E+22
         13048         13048        0.766401        0.999603        0.479160E+22
         13047.6         13047.6        0.766427        0.999236        0.478972E+22
         13047.1         13047.1        0.766453        0.975216        0.467446E+22
         13046.7         13046.7        0.766479        0.999268        0.478961E+22
         13046.2         13046.2        0.766505        0.994672        0.476746E+22
         13045.8         13045.8        0.76653        0.999909        0.479243E+22
         13045.4         13045.4        0.766556        0.991223        0.475068E+22
         13044.9         13044.9        0.766582        0.999346        0.478948E+22
         13044.5         13044.5        0.766608        0.991311        0.475085E+22
         13044         13044        0.766634        0.65309        0.312984E+22
         13043.6         13043.6        0.76666        0.956134        0.458202E+22
         13043.2         13043.2        0.766686        0.875758        0.419672E+22
         13042.7         13042.7        0.766711        0.55183        0.264436E+22
         13042.3         13042.3        0.766737        0.968648        0.464162E+22
         13041.9         13041.8        0.766763        0.995629        0.477078E+22
         13041.4         13041.4        0.766789        0.999045        0.478702E+22
         13041         13041        0.766815        0.999699        0.479002E+22
         13040.5         13040.5        0.766841        0.999881        0.479077E+22
         13040.1         13040.1        0.766867        0.999941        0.479093E+22
         13039.6         13039.6        0.766893        0.999935        0.479077E+22
         13039.2         13039.2        0.766918        0.999957        0.479075E+22
         13038.8         13038.8        0.766944        0.999264        0.478730E+22
         13038.3         13038.3        0.76697        0.996998        0.477632E+22
         13037.9         13037.9        0.766996        0.997769        0.477989E+22
         13037.5         13037.4        0.767022        0.999111        0.478619E+22
         13037         13037        0.767048        0.987943        0.473256E+22
         13036.6         13036.6        0.767074        0.988721        0.473616E+22
         13036.1         13036.1        0.7671        0.991186        0.474784E+22
         13035.7         13035.7        0.767125        0.980044        0.469435E+22
         13035.2         13035.2        0.767151        0.97577        0.467375E+22
         13034.8         13034.8        0.767177        0.784809        0.375898E+22
         13034.4         13034.4        0.767203        0.976195        0.467554E+22
         13033.9         13033.9        0.767229        0.994524        0.476320E+22
         13033.5         13033.5        0.767255        0.998041        0.477992E+22
         13033         13033        0.767281        0.999156        0.478513E+22
         13032.6         13032.6        0.767307        0.999594        0.478710E+22
         13032.2         13032.2        0.767333        0.999788        0.478790E+22
         13031.7         13031.7        0.767359        0.99988        0.478821E+22
         13031.3         13031.3        0.767384        0.999922        0.478829E+22
         13030.9         13030.8        0.76741        0.999913        0.478812E+22
         13030.4         13030.4        0.767436        0.998905        0.478316E+22
         13030         13030        0.767462        0.996188        0.477002E+22
         13029.5         13029.5        0.767488        0.997789        0.477756E+22
         13029.1         13029.1        0.767514        0.999814        0.478713E+22
         13028.6         13028.6        0.76754        0.99987        0.478727E+22
         13028.2         13028.2        0.767566        0.998867        0.478234E+22
         13027.8         13027.8        0.767592        0.997971        0.477792E+22
         13027.3         13027.3        0.767618        0.999839        0.478674E+22
         13026.9         13026.9        0.767644        0.999932        0.478706E+22
         13026.5         13026.4        0.76767        0.999907        0.478681E+22
         13026         13026        0.767696        0.998838        0.478156E+22
         13025.6         13025.6        0.767721        0.99984        0.478623E+22
         13025.1         13025.1        0.767747        0.999716        0.478551E+22
         13024.7         13024.7        0.767773        0.999349        0.478362E+22
         13024.2         13024.2        0.767799        0.994383        0.475973E+22
         13023.8         13023.8        0.767825        0.994881        0.476198E+22
         13023.4         13023.4        0.767851        0.998951        0.478134E+22
         13022.9         13022.9        0.767877        0.999521        0.478394E+22
         13022.5         13022.5        0.767903        0.997937        0.477623E+22
         13022         13022        0.767929        0.997224        0.477269E+22
         13021.6         13021.6        0.767955        0.999346        0.478272E+22
         13021.2         13021.2        0.767981        0.998218        0.477719E+22
         13020.7         13020.7        0.768007        0.986366        0.472035E+22
         13020.3         13020.3        0.768033        0.986063        0.471877E+22
         13019.9         13019.8        0.768059        0.999163        0.478133E+22
         13019.4         13019.4        0.768085        0.99955        0.478305E+22
         13019         13019        0.768111        0.999514        0.478275E+22
         13018.5         13018.5        0.768137        0.998791        0.477916E+22
         13018.1         13018.1        0.768163        0.988284        0.472876E+22
         13017.6         13017.6        0.768189        0.992384        0.474825E+22
         13017.2         13017.2        0.768215        0.969182        0.463712E+22
         13016.8         13016.8        0.768241        0.622169        0.297673E+22
         13016.3         13016.3        0.768266        0.980453        0.469079E+22
         13015.9         13015.9        0.768292        0.996912        0.476941E+22
         13015.5         13015.4        0.768318        0.999148        0.477998E+22
         13015         13015        0.768344        0.999351        0.478082E+22
         13014.6         13014.6        0.76837        0.992671        0.474873E+22
         13014.1         13014.1        0.768396        0.99462        0.475793E+22
         13013.7         13013.7        0.768422        0.999691        0.478206E+22
         13013.2         13013.2        0.768448        0.999986        0.478335E+22
         13012.8         13012.8        0.768474        0.999987        0.478322E+22
         13012.4         13012.4        0.7685        0.999666        0.478156E+22
         13011.9         13011.9        0.768526        0.998881        0.477767E+22
         13011.5         13011.5        0.768552        0.996247        0.476495E+22
         13011         13011        0.768578        0.99946        0.478019E+22
         13010.6         13010.6        0.768604        0.999821        0.478178E+22
         13010.2         13010.2        0.76863        0.999724        0.478119E+22
         13009.7         13009.7        0.768656        0.999993        0.478235E+22
         13009.3         13009.3        0.768682        0.999964        0.478208E+22
         13008.9         13008.8        0.768708        0.998532        0.477511E+22
         13008.4         13008.4        0.768734        0.985741        0.471381E+22
         13008         13008        0.76876        0.999776        0.478080E+22
         13007.5         13007.5        0.768786        0.999857        0.478106E+22
         13007.1         13007.1        0.768812        0.994568        0.475564E+22
         13006.6         13006.6        0.768838        0.995546        0.476019E+22
         13006.2         13006.2        0.768864        0.999774        0.478028E+22
         13005.8         13005.8        0.76889        0.99973        0.477994E+22
         13005.3         13005.3        0.768916        0.99938        0.477813E+22
         13004.9         13004.9        0.768942        0.997351        0.476831E+22
         13004.5         13004.4        0.768968        0.990023        0.473315E+22
         13004         13004        0.768994        0.995383        0.475864E+22
         13003.6         13003.6        0.76902        0.993798        0.475094E+22
         13003.1         13003.1        0.769046        0.951499        0.454860E+22
         13002.7         13002.7        0.769072        0.983949        0.470360E+22
         13002.2         13002.2        0.769098        0.984872        0.470789E+22
         13001.8         13001.8        0.769124        0.942199        0.450378E+22
         13001.4         13001.4        0.76915        0.997988        0.477033E+22
         13000.9         13000.9        0.769177        0.99901        0.477508E+22
         13000.5         13000.5        0.769203        0.997973        0.477000E+22
         13000         13000        0.769229        0.979377        0.468099E+22
         12999.6         12999.6        0.769255        0.995512        0.475798E+22
         12999.2         12999.2        0.769281        0.994655        0.475375E+22
         12998.7         12998.7        0.769307        0.978323        0.467557E+22
         12998.3         12998.3        0.769333        0.973324        0.465156E+22
         12997.9         12997.8        0.769359        0.757103        0.361813E+22
         12997.4         12997.4        0.769385        0.865435        0.413573E+22
         12997         12997        0.769411        0.947662        0.452855E+22
         12996.5         12996.5        0.769437        0.984612        0.470499E+22
         12996.1         12996.1        0.769463        0.986341        0.471313E+22
         12995.6         12995.6        0.769489        0.995279        0.475571E+22
         12995.2         12995.2        0.769515        0.99529        0.475563E+22
         12994.8         12994.8        0.769541        0.991891        0.473927E+22
         12994.3         12994.3        0.769567        0.997874        0.476773E+22
         12993.9         12993.9        0.769593        0.989324        0.472675E+22
         12993.5         12993.4        0.769619        0.999224        0.477392E+22
         12993         12993        0.769645        0.99959        0.477554E+22
         12992.6         12992.6        0.769671        0.999606        0.477549E+22
         12992.1         12992.1        0.769697        0.999385        0.477430E+22
         12991.7         12991.7        0.769724        0.998449        0.476970E+22
         12991.2         12991.2        0.76975        0.9922        0.473972E+22
         12990.8         12990.8        0.769776        0.922259        0.440550E+22
         12990.4         12990.4        0.769802        0.99053        0.473149E+22
         12989.9         12989.9        0.769828        0.997248        0.476345E+22
         12989.5         12989.5        0.769854        0.994533        0.475036E+22
         12989         12989        0.76988        0.975142        0.465761E+22
         12988.6         12988.6        0.769906        0.995275        0.475364E+22
         12988.2         12988.2        0.769932        0.999081        0.477169E+22
         12987.7         12987.7        0.769958        0.999263        0.477243E+22
         12987.3         12987.3        0.769984        0.99618        0.475758E+22
         12986.9         12986.8        0.77001        0.998332        0.476773E+22
         12986.4         12986.4        0.770037        0.999455        0.477296E+22
         12986         12986        0.770063        0.996909        0.476067E+22
         12985.5         12985.5        0.770089        0.950409        0.453849E+22
         12985.1         12985.1        0.770115        0.341768        0.163200E+22
         12984.6         12984.6        0.770141        0.986515        0.471065E+22
         12984.2         12984.2        0.770167        0.996782        0.475955E+22
         12983.8         12983.8        0.770193        0.998141        0.476591E+22
         12983.3         12983.3        0.770219        0.999701        0.477323E+22
         12982.9         12982.9        0.770245        0.998583        0.476777E+22
         12982.5         12982.4        0.770271        0.995376        0.475232E+22
         12982         12982        0.770298        0.99997        0.477413E+22
         12981.6         12981.6        0.770324        0.999961        0.477396E+22
         12981.1         12981.1        0.77035        0.999918        0.477362E+22
         12980.7         12980.7        0.770376        0.999711        0.477251E+22
         12980.2         12980.2        0.770402        0.999195        0.476991E+22
         12979.8         12979.8        0.770428        0.999869        0.477300E+22
         12979.4         12979.4        0.770454        0.999843        0.477275E+22
         12978.9         12978.9        0.77048        0.999608        0.477150E+22
         12978.5         12978.5        0.770506        0.989214        0.472175E+22
         12978         12978        0.770533        0.999835        0.477232E+22
         12977.6         12977.6        0.770559        0.999396        0.477010E+22
         12977.2         12977.2        0.770585        0.999997        0.477284E+22
         12976.7         12976.7        0.770611        0.999995        0.477270E+22
         12976.3         12976.3        0.770637        0.999992        0.477255E+22
         12975.9         12975.8        0.770663        0.99998        0.477237E+22
         12975.4         12975.4        0.770689        0.997102        0.475850E+22
         12975         12975        0.770715        0.999596        0.477028E+22
         12974.5         12974.5        0.770742        0.999509        0.476973E+22
         12974.1         12974.1        0.770768        0.994632        0.474633E+22
         12973.6         12973.6        0.770794        0.993665        0.474159E+22
         12973.2         12973.2        0.77082        0.997917        0.476175E+22
         12972.8         12972.8        0.770846        0.993782        0.474189E+22
         12972.3         12972.3        0.770872        0.99961        0.476957E+22
         12971.9         12971.9        0.770898        0.999702        0.476988E+22
         12971.5         12971.4        0.770925        0.997699        0.476019E+22
         12971         12971        0.770951        0.993119        0.473821E+22
         12970.6         12970.6        0.770977        0.998581        0.476414E+22
         12970.1         12970.1        0.771003        0.995255        0.474815E+22
         12969.7         12969.7        0.771029        0.999879        0.477007E+22
         12969.2         12969.2        0.771055        0.998721        0.476442E+22
         12968.8         12968.8        0.771082        0.999533        0.476817E+22
         12968.4         12968.4        0.771108        0.997511        0.475839E+22
         12967.9         12967.9        0.771134        0.997584        0.475861E+22
         12967.5         12967.5        0.77116        0.998419        0.476246E+22
         12967         12967        0.771186        0.986297        0.470451E+22
         12966.6         12966.6        0.771212        0.994952        0.474567E+22
         12966.2         12966.2        0.771239        0.892365        0.425624E+22
         12965.7         12965.7        0.771265        0.956224        0.456069E+22
         12965.3         12965.3        0.771291        0.991421        0.472844E+22
         12964.9         12964.8        0.771317        0.999636        0.476749E+22
         12964.4         12964.4        0.771343        0.999296        0.476574E+22
         12964         12964        0.771369        0.977373        0.466106E+22
         12963.5         12963.5        0.771396        0.925682        0.441443E+22
         12963.1         12963.1        0.771422        0.998506        0.476158E+22
         12962.6         12962.6        0.771448        0.989706        0.471949E+22
         12962.2         12962.2        0.771474        0.955664        0.455704E+22
         12961.8         12961.8        0.7715        0.992959        0.473475E+22
         12961.3         12961.3        0.771527        0.998639        0.476170E+22
         12960.9         12960.9        0.771553        0.999171        0.476411E+22
         12960.5         12960.4        0.771579        0.997914        0.475798E+22
         12960         12960        0.771605        0.99564        0.474701E+22
         12959.6         12959.6        0.771631        0.832557        0.396936E+22
         12959.1         12959.1        0.771658        0.906657        0.432252E+22
         12958.7         12958.7        0.771684        0.97875        0.466610E+22
         12958.2         12958.2        0.77171        0.994455        0.474084E+22
         12957.8         12957.8        0.771736        0.914861        0.436128E+22
         12957.4         12957.4        0.771762        0.863947        0.411845E+22
         12956.9         12956.9        0.771789        0.984312        0.469211E+22
         12956.5         12956.5        0.771815        0.99966        0.476514E+22
         12956         12956        0.771841        0.999951        0.476640E+22
         12955.6         12955.6        0.771867        0.999977        0.476639E+22
         12955.2         12955.2        0.771893        0.999768        0.476527E+22
         12954.7         12954.7        0.77192        0.997244        0.475310E+22
         12954.3         12954.3        0.771946        0.999834        0.476532E+22
         12953.9         12953.8        0.771972        0.993831        0.473658E+22
         12953.4         12953.4        0.771998        0.999692        0.476438E+22
         12953         12953        0.772024        0.998831        0.476015E+22
         12952.5         12952.5        0.772051        0.999881        0.476502E+22
         12952.1         12952.1        0.772077        0.999486        0.476301E+22
         12951.6         12951.6        0.772103        0.982579        0.468231E+22
         12951.2         12951.2        0.772129        0.963578        0.459164E+22
         12950.8         12950.8        0.772156        0.999119        0.476087E+22
         12950.3         12950.3        0.772182        0.996722        0.474932E+22
         12949.9         12949.9        0.772208        0.999279        0.476138E+22
         12949.5         12949.4        0.772234        0.990366        0.471878E+22
         12949         12949        0.772261        0.997247        0.475143E+22
         12948.6         12948.6        0.772287        0.949874        0.452560E+22
         12948.1         12948.1        0.772313        0.997756        0.475360E+22
         12947.7         12947.7        0.772339        0.998336        0.475623E+22
         12947.2         12947.2        0.772366        0.997658        0.475287E+22
         12946.8         12946.8        0.772392        0.996056        0.474511E+22
         12946.4         12946.4        0.772418        0.992073        0.472601E+22
         12945.9         12945.9        0.772444        0.984657        0.469055E+22
         12945.5         12945.5        0.772471        0.943868        0.449612E+22
         12945         12945        0.772497        0.966482        0.460372E+22
         12944.6         12944.6        0.772523        0.942363        0.448871E+22
         12944.2         12944.2        0.772549        0.974545        0.464188E+22
         12943.7         12943.7        0.772576        0.994823        0.473833E+22
         12943.3         12943.3        0.772602        0.995836        0.474303E+22
         12942.9         12942.8        0.772628        0.996936        0.474814E+22
         12942.4         12942.4        0.772654        0.998534        0.475562E+22
         12942         12942        0.772681        0.998397        0.475483E+22
         12941.5         12941.5        0.772707        0.995734        0.474202E+22
         12941.1         12941.1        0.772733        0.977553        0.465531E+22
         12940.7         12940.7        0.772755        0.996033        0.474321E+22