File: input/common/input/solar/solar_spectrum_02368_3.txt
Solar Doppler Velocity [m/s]:   298.33                # Note: Positive means FOV moving TOWARDS the sun.
Solar Intensity Units are: ph/s/m^2/um
Distance to Sun in AU:    1.00721
S = Solar Rest Frame.  E = earth-centered rest frame.
        Wavenumber_E        Wavenumber_S   Wavelength_S [um]       Transmittance           Intensity
          4895.23          4895.23        2.04281        0.998126        0.115980E+22
          4895.06          4895.06        2.04288        0.998311        0.115991E+22
          4894.89          4894.89        2.04295        0.999998        0.116175E+22
          4894.72          4894.72        2.04302        0.999998        0.116164E+22
          4894.55          4894.55        2.04309        0.999957        0.116149E+22
          4894.38          4894.38        2.04316        0.999996        0.116142E+22
          4894.21          4894.21        2.04323        0.999998        0.116131E+22
          4894.04          4894.04        2.0433        0.999998        0.116120E+22
          4893.87          4893.87        2.04337        0.999883        0.116096E+22
          4893.7          4893.7        2.04345        0.999581        0.116050E+22
          4893.53          4893.53        2.04352        0.995593        0.115576E+22
          4893.36          4893.36        2.04359        0.999946        0.116070E+22
          4893.19          4893.19        2.04366        0.999992        0.116064E+22
          4893.02          4893.02        2.04373        0.999983        0.116052E+22
          4892.85          4892.85        2.0438        0.999946        0.116037E+22
          4892.68          4892.68        2.04387        0.999623        0.115988E+22
          4892.51          4892.51        2.04394        0.999042        0.115910E+22
          4892.34          4892.34        2.04401        0.999903        0.115998E+22
          4892.17          4892.17        2.04408        0.999902        0.115987E+22
          4892          4892        2.04416        0.996002        0.115524E+22
          4891.83          4891.83        2.04423        0.997894        0.115732E+22
          4891.66          4891.66        2.0443        0.997641        0.115692E+22
          4891.49          4891.49        2.04437        0.999119        0.115852E+22
          4891.32          4891.32        2.04444        0.996788        0.115571E+22
          4891.15          4891.15        2.04451        0.999271        0.115848E+22
          4890.98          4890.98        2.04458        0.998271        0.115721E+22
          4890.81          4890.81        2.04465        0.997085        0.115572E+22
          4890.64          4890.64        2.04472        0.997613        0.115622E+22
          4890.47          4890.47        2.0448        0.997866        0.115641E+22
          4890.3          4890.3        2.04487        0.994628        0.115255E+22
          4890.13          4890.13        2.04494        0.991573        0.114890E+22
          4889.96          4889.96        2.04501        0.971734        0.112580E+22
          4889.79          4889.79        2.04508        0.986307        0.114258E+22
          4889.62          4889.62        2.04515        0.987557        0.114391E+22
          4889.45          4889.45        2.04522        0.995888        0.115345E+22
          4889.28          4889.28        2.04529        0.997248        0.115492E+22
          4889.11          4889.11        2.04536        0.999105        0.115696E+22
          4888.94          4888.94        2.04544        0.999189        0.115695E+22
          4888.77          4888.77        2.04551        0.996736        0.115400E+22
          4888.6          4888.6        2.04558        0.999427        0.115700E+22
          4888.43          4888.43        2.04565        0.999312        0.115676E+22
          4888.26          4888.26        2.04572        0.993968        0.115046E+22
          4888.09          4888.09        2.04579        0.996294        0.115304E+22
          4887.92          4887.92        2.04586        0.999743        0.115693E+22
          4887.75          4887.75        2.04593        0.999868        0.115696E+22
          4887.58          4887.58        2.046        0.998401        0.115515E+22
          4887.41          4887.41        2.04608        0.999494        0.115631E+22
          4887.24          4887.24        2.04615        0.999931        0.115670E+22
          4887.07          4887.07        2.04622        0.999977        0.115664E+22
          4886.9          4886.9        2.04629        0.992808        0.114824E+22
          4886.73          4886.73        2.04636        0.999984        0.115643E+22
          4886.56          4886.56        2.04643        0.999984        0.115632E+22
          4886.39          4886.39        2.0465        0.999931        0.115615E+22
          4886.22          4886.22        2.04657        0.999129        0.115511E+22
          4886.05          4886.05        2.04665        0.993153        0.114809E+22
          4885.88          4885.88        2.04672        0.999798        0.115566E+22
          4885.71          4885.71        2.04679        0.99997        0.115575E+22
          4885.54          4885.54        2.04686        0.996561        0.115170E+22
          4885.37          4885.37        2.04693        0.99966        0.115517E+22
          4885.2          4885.2        2.047        0.999962        0.115541E+22
          4885.03          4885.03        2.04707        0.999998        0.115534E+22
          4884.86          4884.86        2.04714        0.999994        0.115523E+22
          4884.69          4884.69        2.04721        0.999929        0.115504E+22
          4884.52          4884.52        2.04729        0.993616        0.114764E+22
          4884.35          4884.35        2.04736        0.992971        0.114679E+22
          4884.18          4884.18        2.04743        0.996652        0.115093E+22
          4884.01          4884.01        2.0475        0.994996        0.114891E+22
          4883.84          4883.84        2.04757        0.994866        0.114865E+22
          4883.67          4883.67        2.04764        0.999953        0.115441E+22
          4883.5          4883.5        2.04771        0.999764        0.115408E+22
          4883.33          4883.33        2.04779        0.998673        0.115271E+22
          4883.16          4883.16        2.04786        0.999301        0.115333E+22
          4882.99          4882.99        2.04793        0.992346        0.114519E+22
          4882.82          4882.82        2.048        0.993331        0.114622E+22
          4882.65          4882.65        2.04807        0.998252        0.115179E+22
          4882.48          4882.48        2.04814        0.998933        0.115246E+22
          4882.31          4882.31        2.04821        0.999954        0.115353E+22
          4882.14          4882.14        2.04828        0.999881        0.115333E+22
          4881.97          4881.97        2.04836        0.980624        0.113101E+22
          4881.8          4881.8        2.04843        0.998285        0.115127E+22
          4881.63          4881.63        2.0485        0.99991        0.115304E+22
          4881.46          4881.46        2.04857        0.997972        0.115069E+22
          4881.29          4881.29        2.04864        0.996714        0.114913E+22
          4881.12          4881.12        2.04871        0.995483        0.114760E+22
          4880.95          4880.95        2.04878        0.9994        0.115201E+22
          4880.78          4880.78        2.04885        0.998905        0.115133E+22
          4880.61          4880.61        2.04893        0.997466        0.114956E+22
          4880.44          4880.44        2.049        0.991177        0.114220E+22
          4880.27          4880.27        2.04907        0.985916        0.113603E+22
          4880.1          4880.1        2.04914        0.993662        0.114485E+22
          4879.93          4879.93        2.04921        0.992789        0.114373E+22
          4879.76          4879.76        2.04928        0.998827        0.115058E+22
          4879.59          4879.59        2.04935        0.999453        0.115119E+22
          4879.42          4879.42        2.04943        0.999633        0.115129E+22
          4879.25          4879.25        2.0495        0.999672        0.115122E+22
          4879.08          4879.08        2.04957        0.999621        0.115105E+22
          4878.91          4878.91        2.04964        0.999422        0.115071E+22
          4878.74          4878.74        2.04971        0.999001        0.115012E+22
          4878.57          4878.57        2.04978        0.99764        0.114844E+22
          4878.4          4878.4        2.04985        0.988949        0.113833E+22
          4878.23          4878.23        2.04993        0.993925        0.114395E+22
          4878.06          4878.06        2.05        0.984811        0.113335E+22
          4877.89          4877.89        2.05007        0.993913        0.114371E+22
          4877.72          4877.72        2.05014        0.990577        0.113977E+22
          4877.55          4877.55        2.05021        0.987231        0.113581E+22
          4877.38          4877.38        2.05028        0.991804        0.114096E+22
          4877.21          4877.21        2.05035        0.958182        0.110218E+22
          4877.04          4877.04        2.05043        0.987762        0.113609E+22
          4876.87          4876.87        2.0505        0.999271        0.114922E+22
          4876.7          4876.7        2.05057        0.999116        0.114893E+22
          4876.53          4876.53        2.05064        0.999589        0.114937E+22
          4876.36          4876.36        2.05071        0.995881        0.114499E+22
          4876.19          4876.19        2.05078        0.999593        0.114915E+22
          4876.02          4876.02        2.05085        0.9999        0.114939E+22
          4875.85          4875.85        2.05093        0.999928        0.114932E+22
          4875.68          4875.68        2.051        0.999945        0.114923E+22
          4875.51          4875.51        2.05107        0.999956        0.114913E+22
          4875.34          4875.34        2.05114        0.99996        0.114902E+22
          4875.17          4875.17        2.05121        0.999956        0.114891E+22
          4875          4875        2.05128        0.999931        0.114877E+22
          4874.83          4874.83        2.05136        0.999843        0.114856E+22
          4874.66          4874.66        2.05143        0.999485        0.114804E+22
          4874.49          4874.49        2.0515        0.997005        0.114508E+22
          4874.32          4874.32        2.05157        0.966562        0.111001E+22
          4874.15          4874.15        2.05164        0.997746        0.114571E+22
          4873.98          4873.98        2.05171        0.994931        0.114237E+22
          4873.81          4873.81        2.05178        0.99987        0.114793E+22
          4873.64          4873.64        2.05186        0.999951        0.114791E+22
          4873.47          4873.47        2.05193        0.999971        0.114783E+22
          4873.3          4873.3        2.052        0.999796        0.114752E+22
          4873.13          4873.13        2.05207        0.997203        0.114443E+22
          4872.96          4872.96        2.05214        0.999886        0.114740E+22
          4872.79          4872.79        2.05221        0.996652        0.114358E+22
          4872.62          4872.62        2.05229        0.999978        0.114729E+22
          4872.45          4872.45        2.05236        0.999998        0.114720E+22
          4872.28          4872.28        2.05243        0.994639        0.114094E+22
          4872.11          4872.11        2.0525        0.999992        0.114697E+22
          4871.94          4871.94        2.05257        0.999996        0.114687E+22
          4871.77          4871.77        2.05264        0.999863        0.114660E+22
          4871.6          4871.6        2.05272        0.997528        0.114382E+22
          4871.43          4871.43        2.05279        0.998078        0.114434E+22
          4871.26          4871.26        2.05286        0.999534        0.114590E+22
          4871.09          4871.09        2.05293        0.999964        0.114628E+22
          4870.92          4870.92        2.053        0.99989        0.114609E+22
          4870.75          4870.75        2.05307        0.999399        0.114541E+22
          4870.58          4870.58        2.05315        0.998246        0.114398E+22
          4870.41          4870.41        2.05322        0.999804        0.114566E+22
          4870.24          4870.24        2.05329        0.999942        0.114571E+22
          4870.07          4870.07        2.05336        0.999965        0.114562E+22
          4869.9          4869.9        2.05343        0.996766        0.114185E+22
          4869.73          4869.73        2.0535        0.999932        0.114537E+22
          4869.56          4869.56        2.05358        0.99975        0.114505E+22
          4869.39          4869.39        2.05365        0.999891        0.114510E+22
          4869.22          4869.22        2.05372        0.999753        0.114483E+22
          4869.05          4869.05        2.05379        0.999204        0.114409E+22
          4868.88          4868.88        2.05386        0.996107        0.114044E+22
          4868.71          4868.71        2.05393        0.99442        0.113840E+22
          4868.54          4868.54        2.05401        0.998959        0.114349E+22
          4868.37          4868.37        2.05408        0.998396        0.114273E+22
          4868.2          4868.2        2.05415        0.999919        0.114436E+22
          4868.03          4868.03        2.05422        0.999955        0.114430E+22
          4867.86          4867.86        2.05429        0.999956        0.114419E+22
          4867.69          4867.69        2.05436        0.999431        0.114348E+22
          4867.52          4867.52        2.05444        0.981532        0.112289E+22
          4867.35          4867.35        2.05451        0.999791        0.114367E+22
          4867.18          4867.18        2.05458        0.999639        0.114339E+22
          4867.01          4867.01        2.05465        0.999979        0.114367E+22
          4866.84          4866.84        2.05472        0.999667        0.114320E+22
          4866.67          4866.67        2.0548        0.999831        0.114328E+22
          4866.5          4866.5        2.05487        0.999202        0.114245E+22
          4866.33          4866.33        2.05494        0.99896        0.114206E+22
          4866.16          4866.16        2.05501        0.99983        0.114295E+22
          4865.99          4865.99        2.05508        0.999942        0.114297E+22
          4865.82          4865.82        2.05515        0.999381        0.114222E+22
          4865.65          4865.65        2.05523        0.999156        0.114185E+22
          4865.48          4865.48        2.0553        0.992946        0.113464E+22
          4865.31          4865.31        2.05537        0.998001        0.114031E+22
          4865.14          4865.14        2.05544        0.999294        0.114168E+22
          4864.97          4864.97        2.05551        0.999869        0.114223E+22
          4864.8          4864.8        2.05559        0.999953        0.114221E+22
          4864.63          4864.63        2.05566        0.999962        0.114211E+22
          4864.46          4864.46        2.05573        0.999891        0.114192E+22
          4864.29          4864.29        2.0558        0.999031        0.114083E+22
          4864.12          4864.12        2.05587        0.994207        0.113521E+22
          4863.95          4863.95        2.05594        0.999052        0.114064E+22
          4863.78          4863.78        2.05602        0.995145        0.113607E+22
          4863.61          4863.61        2.05609        0.996217        0.113718E+22
          4863.44          4863.44        2.05616        0.999868        0.114124E+22
          4863.27          4863.27        2.05623        0.999265        0.114044E+22
          4863.1          4863.1        2.0563        0.999998        0.114117E+22
          4862.93          4862.93        2.05638        0.999971        0.114103E+22
          4862.76          4862.76        2.05645        0.996281        0.113671E+22
          4862.59          4862.59        2.05652        0.996763        0.113715E+22
          4862.42          4862.42        2.05659        0.998595        0.113913E+22
          4862.25          4862.25        2.05666        0.998151        0.113852E+22
          4862.08          4862.08        2.05673        0.999979        0.114049E+22
          4861.91          4861.91        2.05681        0.994778        0.113445E+22
          4861.74          4861.74        2.05688        0.99986        0.114014E+22
          4861.57          4861.57        2.05695        0.967701        0.110336E+22
          4861.4          4861.4        2.05702        0.999494        0.113950E+22
          4861.23          4861.23        2.05709        0.999984        0.113995E+22
          4861.06          4861.06        2.05717        0.999718        0.113954E+22
          4860.89          4860.89        2.05724        0.998186        0.113768E+22
          4860.72          4860.72        2.05731        0.999953        0.113959E+22
          4860.55          4860.55        2.05738        0.999476        0.113893E+22
          4860.38          4860.38        2.05745        0.99477        0.113346E+22
          4860.21          4860.21        2.05753        0.999791        0.113907E+22
          4860.04          4860.04        2.0576        0.999807        0.113898E+22
          4859.87          4859.87        2.05767        0.997967        0.113678E+22
          4859.7          4859.7        2.05774        0.998536        0.113732E+22
          4859.53          4859.53        2.05781        0.999896        0.113876E+22
          4859.36          4859.36        2.05789        0.999452        0.113814E+22
          4859.19          4859.19        2.05796        0.998266        0.113668E+22
          4859.02          4859.02        2.05803        0.998914        0.113731E+22
          4858.85          4858.85        2.0581        0.999985        0.113842E+22
          4858.68          4858.68        2.05817        0.999999        0.113833E+22
          4858.51          4858.51        2.05825        0.999961        0.113817E+22
          4858.34          4858.34        2.05832        0.999181        0.113718E+22
          4858.17          4858.17        2.05839        0.999981        0.113798E+22
          4858          4858        2.05846        0.997205        0.113471E+22
          4857.83          4857.83        2.05853        0.999995        0.113778E+22
          4857.66          4857.66        2.05861        0.99999        0.113766E+22
          4857.49          4857.49        2.05868        0.999972        0.113753E+22
          4857.32          4857.32        2.05875        0.999904        0.113735E+22
          4857.15          4857.15        2.05882        0.998799        0.113598E+22
          4856.98          4856.98        2.05889        0.996917        0.113373E+22
          4856.81          4856.81        2.05897        0.902442        0.102619E+22
          4856.64          4856.64        2.05904        0.988473        0.112391E+22
          4856.47          4856.47        2.05911        0.996287        0.113269E+22
          4856.3          4856.3        2.05918        0.987999        0.112316E+22
          4856.13          4856.13        2.05925        0.995077        0.113109E+22
          4855.96          4855.96        2.05933        0.998629        0.113502E+22
          4855.79          4855.79        2.0594        0.999984        0.113645E+22
          4855.62          4855.62        2.05947        0.999987        0.113635E+22
          4855.45          4855.45        2.05954        0.999986        0.113624E+22
          4855.28          4855.28        2.05962        0.999983        0.113612E+22
          4855.11          4855.11        2.05969        0.999979        0.113601E+22
          4854.94          4854.94        2.05976        0.999974        0.113590E+22
          4854.77          4854.77        2.05983        0.999965        0.113578E+22
          4854.6          4854.6        2.0599        0.999941        0.113564E+22
          4854.43          4854.43        2.05998        0.990043        0.112429E+22
          4854.26          4854.26        2.06005        0.994592        0.112935E+22
          4854.09          4854.09        2.06012        0.992316        0.112666E+22
          4853.92          4853.92        2.06019        0.999347        0.113453E+22
          4853.75          4853.75        2.06026        0.999338        0.113441E+22
          4853.58          4853.58        2.06034        0.998169        0.113297E+22
          4853.41          4853.41        2.06041        0.987689        0.112097E+22
          4853.24          4853.24        2.06048        0.971338        0.110231E+22
          4853.07          4853.07        2.06055        0.997361        0.113173E+22
          4852.9          4852.9        2.06063        0.993819        0.112760E+22
          4852.73          4852.73        2.0607        0.982882        0.111509E+22
          4852.56          4852.56        2.06077        0.965138        0.109485E+22
          4852.39          4852.39        2.06084        0.709275        0.804523E+21
          4852.22          4852.22        2.06091        0.957465        0.108594E+22
          4852.05          4852.05        2.06099        0.991176        0.112406E+22
          4851.88          4851.88        2.06106        0.996795        0.113033E+22
          4851.71          4851.71        2.06113        0.998501        0.113215E+22
          4851.54          4851.54        2.0612        0.999183        0.113282E+22
          4851.37          4851.37        2.06128        0.9995        0.113307E+22
          4851.2          4851.2        2.06135        0.998254        0.113155E+22
          4851.03          4851.03        2.06142        0.999646        0.113302E+22
          4850.86          4850.86        2.06149        0.999146        0.113234E+22
          4850.69          4850.69        2.06156        0.997156        0.112998E+22
          4850.52          4850.52        2.06164        0.994069        0.112637E+22
          4850.35          4850.35        2.06171        0.994027        0.112622E+22
          4850.18          4850.18        2.06178        0.997104        0.112959E+22
          4850.01          4850.01        2.06185        0.999098        0.113174E+22
          4849.84          4849.84        2.06193        0.999376        0.113195E+22
          4849.67          4849.67        2.062        0.997737        0.112998E+22
          4849.5          4849.5        2.06207        0.965482        0.109335E+22
          4849.33          4849.33        2.06214        0.995507        0.112724E+22
          4849.16          4849.16        2.06221        0.997887        0.112983E+22
          4848.99          4848.99        2.06229        0.999765        0.113185E+22
          4848.82          4848.82        2.06236        0.999883        0.113187E+22
          4848.65          4848.65        2.06243        0.999397        0.113121E+22
          4848.48          4848.48        2.0625        0.999919        0.113169E+22
          4848.31          4848.31        2.06258        0.999894        0.113156E+22
          4848.14          4848.14        2.06265        0.999351        0.113083E+22
          4847.97          4847.97        2.06272        0.999844        0.113128E+22
          4847.8          4847.8        2.06279        0.999811        0.113114E+22
          4847.63          4847.63        2.06287        0.999728        0.113093E+22
          4847.46          4847.46        2.06294        0.999575        0.113065E+22
          4847.29          4847.29        2.06301        0.999251        0.113017E+22
          4847.12          4847.12        2.06308        0.998312        0.112900E+22
          4846.95          4846.95        2.06316        0.993753        0.112374E+22
          4846.78          4846.78        2.06323        0.995072        0.112512E+22
          4846.61          4846.61        2.0633        0.996493        0.112662E+22
          4846.44          4846.44        2.06337        0.992281        0.112175E+22
          4846.27          4846.27        2.06344        0.962483        0.108796E+22
          4846.1          4846.1        2.06352        0.746739        0.844009E+21
          4845.93          4845.93        2.06359        0.941027        0.106350E+22
          4845.76          4845.76        2.06366        0.988109        0.111661E+22
          4845.59          4845.59        2.06373        0.99292        0.112193E+22
          4845.42          4845.42        2.06381        0.976169        0.110290E+22
          4845.25          4845.25        2.06388        0.981015        0.110827E+22
          4845.08          4845.08        2.06395        0.991587        0.112010E+22
          4844.91          4844.91        2.06402        0.994907        0.112375E+22
          4844.74          4844.74        2.0641        0.992311        0.112071E+22
          4844.57          4844.57        2.06417        0.991006        0.111913E+22
          4844.4          4844.4        2.06424        0.997684        0.112656E+22
          4844.23          4844.23        2.06431        0.999206        0.112817E+22
          4844.06          4844.06        2.06439        0.999368        0.112824E+22
          4843.89          4843.89        2.06446        0.999452        0.112823E+22
          4843.72          4843.72        2.06453        0.999457        0.112813E+22
          4843.55          4843.55        2.0646        0.999347        0.112789E+22
          4843.38          4843.38        2.06468        0.998982        0.112737E+22
          4843.21          4843.21        2.06475        0.997759        0.112588E+22
          4843.04          4843.04        2.06482        0.989977        0.111700E+22
          4842.87          4842.87        2.06489        0.99747        0.112534E+22
          4842.7          4842.7        2.06497        0.997934        0.112576E+22
          4842.53          4842.53        2.06504        0.999285        0.112717E+22
          4842.36          4842.36        2.06511        0.995754        0.112308E+22
          4842.19          4842.19        2.06518        0.998072        0.112559E+22
          4842.02          4842.02        2.06526        0.998551        0.112602E+22
          4841.85          4841.85        2.06533        0.999414        0.112688E+22
          4841.68          4841.68        2.0654        0.992342        0.111880E+22
          4841.51          4841.51        2.06547        0.995515        0.112227E+22
          4841.34          4841.34        2.06555        0.999344        0.112648E+22
          4841.17          4841.17        2.06562        0.999894        0.112699E+22
          4841          4841        2.06569        0.999949        0.112694E+22
          4840.83          4840.83        2.06576        0.999966        0.112685E+22
          4840.66          4840.66        2.06584        0.999973        0.112675E+22
          4840.49          4840.49        2.06591        0.999975        0.112665E+22
          4840.32          4840.32        2.06598        0.999974        0.112654E+22
          4840.15          4840.15        2.06605        0.999968        0.112642E+22
          4839.98          4839.98        2.06613        0.999951        0.112629E+22
          4839.81          4839.81        2.0662        0.999907        0.112614E+22
          4839.64          4839.64        2.06627        0.999755        0.112586E+22
          4839.47          4839.47        2.06634        0.998431        0.112426E+22
          4839.3          4839.3        2.06642        0.998572        0.112431E+22
          4839.13          4839.13        2.06649        0.999789        0.112557E+22
          4838.96          4838.96        2.06656        0.99957        0.112521E+22
          4838.79          4838.79        2.06663        0.996151        0.112126E+22
          4838.62          4838.62        2.06671        0.995924        0.112089E+22
          4838.45          4838.45        2.06678        0.99959        0.112491E+22
          4838.28          4838.28        2.06685        0.99988        0.112513E+22
          4838.11          4838.11        2.06692        0.999921        0.112507E+22
          4837.94          4837.94        2.067        0.999676        0.112468E+22
          4837.77          4837.77        2.06707        0.996588        0.112110E+22
          4837.6          4837.6        2.06714        0.999804        0.112461E+22
          4837.43          4837.43        2.06722        0.999904        0.112461E+22
          4837.26          4837.26        2.06729        0.99987        0.112447E+22
          4837.09          4837.09        2.06736        0.999477        0.112392E+22
          4836.92          4836.92        2.06743        0.997968        0.112211E+22
          4836.75          4836.75        2.06751        0.996862        0.112076E+22
          4836.58          4836.58        2.06758        0.999202        0.112328E+22
          4836.41          4836.41        2.06765        0.998558        0.112245E+22
          4836.24          4836.24        2.06772        0.996663        0.112021E+22
          4836.07          4836.07        2.0678        0.989893        0.111250E+22
          4835.9          4835.9        2.06787        0.997147        0.112054E+22
          4835.73          4835.73        2.06794        0.998516        0.112197E+22
          4835.56          4835.56        2.06801        0.998142        0.112144E+22
          4835.39          4835.39        2.06809        0.983323        0.110469E+22
          4835.22          4835.22        2.06816        0.993803        0.111635E+22
          4835.05          4835.05        2.06823        0.993181        0.111555E+22
          4834.88          4834.88        2.06831        0.954418        0.107190E+22
          4834.71          4834.71        2.06838        0.997689        0.112039E+22
          4834.54          4834.54        2.06845        0.99959        0.112242E+22
          4834.37          4834.37        2.06852        0.999816        0.112257E+22
          4834.2          4834.2        2.0686        0.999828        0.112247E+22
          4834.03          4834.03        2.06867        0.999665        0.112218E+22
          4833.86          4833.86        2.06874        0.998413        0.112067E+22
          4833.69          4833.69        2.06881        0.998739        0.112092E+22
          4833.52          4833.52        2.06889        0.998733        0.112081E+22
          4833.35          4833.35        2.06896        0.998169        0.112007E+22
          4833.18          4833.18        2.06903        0.999893        0.112189E+22
          4833.01          4833.01        2.06911        0.999901        0.112179E+22
          4832.84          4832.84        2.06918        0.999543        0.112128E+22
          4832.67          4832.67        2.06925        0.999877        0.112155E+22
          4832.5          4832.5        2.06932        0.999869        0.112143E+22
          4832.33          4832.33        2.0694        0.999847        0.112130E+22
          4832.16          4832.16        2.06947        0.999817        0.112116E+22
          4831.99          4831.99        2.06954        0.999761        0.112099E+22
          4831.82          4831.82        2.06962        0.995266        0.111584E+22
          4831.65          4831.65        2.06969        0.999626        0.112062E+22
          4831.48          4831.48        2.06976        0.999496        0.112037E+22
          4831.31          4831.31        2.06983        0.989721        0.110930E+22
          4831.14          4831.14        2.06991        0.999008        0.111960E+22
          4830.97          4830.97        2.06998        0.998216        0.111861E+22
          4830.8          4830.8        2.07005        0.998473        0.111879E+22
          4830.63          4830.63        2.07013        0.997602        0.111770E+22
          4830.46          4830.46        2.0702        0.995634        0.111539E+22
          4830.29          4830.29        2.07027        0.988628        0.110744E+22
          4830.12          4830.12        2.07034        0.974105        0.109106E+22
          4829.95          4829.95        2.07042        0.751069        0.841166E+21
          4829.78          4829.78        2.07049        0.938265        0.105072E+22
          4829.61          4829.61        2.07056        0.988907        0.110732E+22
          4829.44          4829.44        2.07064        0.995467        0.111456E+22
          4829.27          4829.27        2.07071        0.994667        0.111356E+22
          4829.1          4829.1        2.07078        0.982053        0.109933E+22
          4828.93          4828.93        2.07085        0.99799        0.111706E+22
          4828.76          4828.76        2.07093        0.999113        0.111821E+22
          4828.59          4828.59        2.071        0.999391        0.111841E+22
          4828.42          4828.42        2.07107        0.99946        0.111838E+22
          4828.25          4828.25        2.07115        0.999351        0.111815E+22
          4828.08          4828.08        2.07122        0.993371        0.111135E+22
          4827.91          4827.91        2.07129        0.997223        0.111556E+22
          4827.74          4827.74        2.07136        0.987824        0.110493E+22
          4827.57          4827.57        2.07144        0.979769        0.109582E+22
          4827.4          4827.4        2.07151        0.998324        0.111646E+22
          4827.23          4827.23        2.07158        0.999406        0.111757E+22
          4827.06          4827.06        2.07166        0.999357        0.111740E+22
          4826.89          4826.89        2.07173        0.99589        0.111342E+22
          4826.72          4826.72        2.0718        0.993154        0.111025E+22
          4826.55          4826.55        2.07188        0.989277        0.110581E+22
          4826.38          4826.38        2.07195        0.999492        0.111712E+22
          4826.21          4826.21        2.07202        0.99837        0.111576E+22
          4826.04          4826.04        2.07209        0.994734        0.111159E+22
          4825.87          4825.87        2.07217        0.992127        0.110857E+22
          4825.7          4825.7        2.07224        0.896577        0.100171E+22
          4825.53          4825.53        2.07231        0.975434        0.108971E+22
          4825.36          4825.36        2.07239        0.997721        0.111450E+22
          4825.19          4825.19        2.07246        0.999499        0.111637E+22
          4825.02          4825.02        2.07253        0.99983        0.111664E+22
          4824.85          4824.85        2.07261        0.999887        0.111659E+22
          4824.68          4824.68        2.07268        0.999745        0.111632E+22
          4824.51          4824.51        2.07275        0.994258        0.111009E+22
          4824.34          4824.34        2.07282        0.986449        0.110127E+22
          4824.17          4824.17        2.0729        0.936216        0.104508E+22
          4824          4824        2.07297        0.997394        0.111327E+22
          4823.83          4823.83        2.07304        0.998135        0.111399E+22
          4823.66          4823.66        2.07312        0.995692        0.111116E+22
          4823.49          4823.49        2.07319        0.999889        0.111573E+22
          4823.32          4823.32        2.07326        0.999983        0.111573E+22
          4823.15          4823.15        2.07334        0.999989        0.111563E+22
          4822.98          4822.98        2.07341        0.999979        0.111551E+22
          4822.81          4822.81        2.07348        0.999942        0.111536E+22
          4822.64          4822.64        2.07356        0.999762        0.111505E+22
          4822.47          4822.47        2.07363        0.996677        0.111150E+22
          4822.3          4822.3        2.0737        0.994003        0.110841E+22
          4822.13          4822.13        2.07377        0.951276        0.106067E+22
          4821.96          4821.96        2.07385        0.985938        0.109921E+22
          4821.79          4821.79        2.07392        0.995791        0.111008E+22
          4821.62          4821.62        2.07399        0.996563        0.111084E+22
          4821.45          4821.45        2.07407        0.998504        0.111289E+22
          4821.28          4821.28        2.07414        0.991502        0.110498E+22
          4821.11          4821.11        2.07421        0.967646        0.107829E+22
          4820.94          4820.94        2.07429        0.954884        0.106397E+22
          4820.77          4820.77        2.07436        0.993904        0.110734E+22
          4820.6          4820.6        2.07443        0.998104        0.111191E+22
          4820.43          4820.43        2.07451        0.999613        0.111348E+22
          4820.26          4820.26        2.07458        0.999892        0.111369E+22
          4820.09          4820.09        2.07465        0.999472        0.111311E+22
          4819.92          4819.92        2.07473        0.999978        0.111357E+22
          4819.75          4819.75        2.0748        0.999988        0.111347E+22
          4819.58          4819.58        2.07487        0.999991        0.111336E+22
          4819.41          4819.41        2.07494        0.993117        0.110560E+22
          4819.24          4819.24        2.07502        0.996948        0.110976E+22
          4819.07          4819.07        2.07509        0.999692        0.111271E+22
          4818.9          4818.9        2.07516        0.999477        0.111236E+22
          4818.73          4818.73        2.07524        0.998113        0.111074E+22
          4818.56          4818.56        2.07531        0.999713        0.111241E+22
          4818.39          4818.39        2.07538        0.999031        0.111154E+22
          4818.22          4818.22        2.07546        0.996979        0.110915E+22
          4818.05          4818.05        2.07553        0.997157        0.110924E+22
          4817.88          4817.88        2.0756        0.992938        0.110444E+22
          4817.71          4817.71        2.07568        0.999011        0.111109E+22
          4817.54          4817.54        2.07575        0.999028        0.111100E+22
          4817.37          4817.37        2.07582        0.999322        0.111122E+22
          4817.2          4817.2        2.0759        0.999925        0.111178E+22
          4817.03          4817.03        2.07597        0.998391        0.110997E+22
          4816.86          4816.86        2.07604        0.999952        0.111160E+22
          4816.69          4816.69        2.07612        0.999772        0.111129E+22
          4816.52          4816.52        2.07619        0.991605        0.110211E+22
          4816.35          4816.35        2.07626        0.999613        0.111090E+22
          4816.18          4816.18        2.07634        0.999948        0.111116E+22
          4816.01          4816.01        2.07641        0.999955        0.111106E+22
          4815.84          4815.84        2.07648        0.999834        0.111082E+22
          4815.67          4815.67        2.07656        0.99794        0.110861E+22
          4815.5          4815.5        2.07663        0.999279        0.110999E+22
          4815.33          4815.33        2.0767        0.999623        0.111027E+22
          4815.16          4815.16        2.07678        0.99311        0.110292E+22
          4814.99          4814.99        2.07685        0.982232        0.109074E+22
          4814.82          4814.82        2.07692        0.998633        0.110884E+22
          4814.65          4814.65        2.077        0.999778        0.111001E+22
          4814.48          4814.48        2.07707        0.999924        0.111006E+22
          4814.31          4814.31        2.07714        0.999899        0.110993E+22
          4814.14          4814.14        2.07722        0.99724        0.110687E+22
          4813.97          4813.97        2.07729        0.99764        0.110720E+22
          4813.8          4813.8        2.07736        0.996087        0.110537E+22
          4813.63          4813.63        2.07744        0.99718        0.110648E+22
          4813.46          4813.46        2.07751        0.99969        0.110916E+22
          4813.29          4813.29        2.07758        0.998051        0.110723E+22
          4813.12          4813.12        2.07766        0.999768        0.110903E+22
          4812.95          4812.95        2.07773        0.999952        0.110913E+22
          4812.78          4812.78        2.0778        0.999982        0.110905E+22
          4812.61          4812.61        2.07788        0.999997        0.110896E+22
          4812.44          4812.44        2.07795        0.999999        0.110886E+22
          4812.27          4812.27        2.07802        0.999999        0.110875E+22
          4812.1          4812.1        2.0781        1        0.110864E+22
          4811.93          4811.93        2.07817        1        0.110853E+22
          4811.76          4811.76        2.07824        0.998537        0.110681E+22
          4811.59          4811.59        2.07832        0.999974        0.110829E+22
          4811.42          4811.42        2.07839        0.995023        0.110270E+22
          4811.25          4811.25        2.07846        0.999979        0.110808E+22
          4811.08          4811.08        2.07854        1        0.110800E+22
          4810.91          4810.91        2.07861        1        0.110789E+22
          4810.74          4810.74        2.07868        1        0.110778E+22
          4810.57          4810.57        2.07876        1        0.110768E+22
          4810.4          4810.4        2.07883        0.999996        0.110756E+22
          4810.23          4810.23        2.0789        0.999995        0.110746E+22
          4810.06          4810.06        2.07898        0.999994        0.110735E+22
          4809.89          4809.89        2.07905        0.999993        0.110724E+22
          4809.72          4809.72        2.07913        0.999987        0.110712E+22
          4809.55          4809.55        2.0792        0.999073        0.110600E+22
          4809.38          4809.38        2.07927        0.999795        0.110670E+22
          4809.21          4809.21        2.07935        0.99955        0.110632E+22
          4809.04          4809.04        2.07942        0.998554        0.110511E+22
          4808.87          4808.87        2.07949        0.999297        0.110582E+22
          4808.7          4808.7        2.07957        0.999967        0.110646E+22
          4808.53          4808.53        2.07964        0.999967        0.110635E+22
          4808.36          4808.36        2.07971        0.999066        0.110525E+22
          4808.19          4808.19        2.07979        0.997425        0.110332E+22
          4808.02          4808.02        2.07986        0.997435        0.110323E+22
          4807.85          4807.85        2.07993        0.997224        0.110289E+22
          4807.68          4807.68        2.08001        0.992943        0.109805E+22
          4807.51          4807.51        2.08008        0.993667        0.109874E+22
          4807.34          4807.34        2.08015        0.9994        0.110497E+22
          4807.17          4807.17        2.08023        0.994156        0.109907E+22
          4807          4807        2.0803        0.999077        0.110440E+22
          4806.83          4806.83        2.08038        0.99946        0.110472E+22
          4806.66          4806.66        2.08045        0.992267        0.109666E+22
          4806.49          4806.49        2.08052        0.9409        0.103979E+22
          4806.32          4806.32        2.0806        0.995249        0.109974E+22
          4806.15          4806.15        2.08067        0.996931        0.110150E+22
          4805.98          4805.98        2.08074        0.996177        0.110055E+22
          4805.81          4805.81        2.08082        0.997764        0.110220E+22
          4805.64          4805.64        2.08089        0.995019        0.109906E+22
          4805.47          4805.47        2.08096        0.889272        0.982164E+21
          4805.3          4805.3        2.08104        0.930385        0.102747E+22
          4805.13          4805.13        2.08111        0.936516        0.103414E+22
          4804.96          4804.96        2.08118        0.995816        0.109952E+22
          4804.79          4804.79        2.08126        0.998148        0.110198E+22
          4804.62          4804.62        2.08133        0.997327        0.110097E+22
          4804.45          4804.45        2.08141        0.998917        0.110262E+22
          4804.28          4804.28        2.08148        0.999412        0.110306E+22
          4804.11          4804.11        2.08155        0.999629        0.110319E+22
          4803.94          4803.94        2.08163        0.999745        0.110321E+22
          4803.77          4803.77        2.0817        0.999815        0.110318E+22
          4803.6          4803.6        2.08177        0.999853        0.110312E+22
          4803.43          4803.43        2.08185        0.999815        0.110297E+22
          4803.26          4803.26        2.08192        0.982402        0.108365E+22
          4803.09          4803.09        2.082        0.997654        0.110037E+22
          4802.92          4802.92        2.08207        0.997566        0.110017E+22
          4802.75          4802.75        2.08214        0.995557        0.109784E+22
          4802.58          4802.58        2.08222        0.999624        0.110222E+22
          4802.41          4802.41        2.08229        0.999375        0.110184E+22
          4802.24          4802.24        2.08236        0.986711        0.108777E+22
          4802.07          4802.07        2.08244        0.996663        0.109864E+22
          4801.9          4801.9        2.08251        0.999351        0.110149E+22
          4801.73          4801.73        2.08258        0.995331        0.109696E+22
          4801.56          4801.56        2.08266        0.99945        0.110139E+22
          4801.39          4801.39        2.08273        0.999922        0.110180E+22
          4801.22          4801.22        2.08281        0.999929        0.110170E+22
          4801.05          4801.05        2.08288        0.999904        0.110157E+22
          4800.88          4800.88        2.08295        0.999842        0.110139E+22
          4800.71          4800.71        2.08303        0.999719        0.110115E+22
          4800.54          4800.54        2.0831        0.999456        0.110075E+22
          4800.37          4800.37        2.08317        0.998793        0.109992E+22
          4800.2          4800.2        2.08325        0.996472        0.109725E+22
          4800.03          4800.03        2.08332        0.980537        0.107960E+22
          4799.86          4799.86        2.0834        0.995533        0.109601E+22
          4799.69          4799.69        2.08347        0.997905        0.109851E+22
          4799.52          4799.52        2.08354        0.987884        0.108737E+22
          4799.35          4799.35        2.08362        0.999509        0.110006E+22
          4799.18          4799.18        2.08369        0.999794        0.110027E+22
          4799.01          4799.01        2.08377        0.999821        0.110019E+22
          4798.84          4798.84        2.08384        0.999476        0.109971E+22
          4798.7          4798.7        2.0839        0.993787        0.109336E+22